Data for module tests of Kalman filtration. First and second lines are ignored.
Format of data: ackX  ackY  ackZ  gyroX  gyroY  gyroZ magX magY magZ
5.243357 -0.011721 -8.291150 0.141372 -0.177994 -0.001974 -2.267605 -2.951838 7.148253
5.228545 -0.023469 -8.300474 0.141371 -0.178551 -0.005922 -2.254697 -2.941605 7.156550
5.213670 -0.035243 -8.309783 0.141371 -0.179106 -0.009869 -2.241643 -2.931279 7.164882
5.198732 -0.047043 -8.319079 0.141370 -0.179659 -0.013816 -2.228442 -2.920860 7.173250
5.183732 -0.058870 -8.328359 0.141368 -0.180210 -0.017763 -2.215095 -2.910349 7.181652
5.168669 -0.070723 -8.337623 0.141366 -0.180759 -0.021709 -2.201601 -2.899743 7.190086
5.153543 -0.082602 -8.346872 0.141364 -0.181307 -0.025654 -2.187960 -2.889044 7.198552
5.138355 -0.094507 -8.356104 0.141362 -0.181853 -0.029598 -2.174172 -2.878252 7.207048
5.123104 -0.106438 -8.365320 0.141359 -0.182397 -0.033541 -2.160237 -2.867365 7.215573
5.107791 -0.118395 -8.374518 0.141356 -0.182939 -0.037482 -2.146154 -2.856384 7.224126
5.092415 -0.130378 -8.383699 0.141352 -0.183480 -0.041422 -2.131924 -2.845308 7.232705
5.076977 -0.142387 -8.392862 0.141349 -0.184018 -0.045361 -2.117546 -2.834138 7.241309
5.061477 -0.154421 -8.402006 0.141344 -0.184555 -0.049297 -2.103021 -2.822872 7.249938
5.045914 -0.166482 -8.411132 0.141340 -0.185090 -0.053232 -2.088348 -2.811512 7.258588
5.030289 -0.178568 -8.420238 0.141335 -0.185624 -0.057164 -2.073527 -2.800056 7.267261
5.014602 -0.190679 -8.429324 0.141330 -0.186155 -0.061095 -2.058558 -2.788504 7.275953
4.998853 -0.202816 -8.438390 0.141324 -0.186685 -0.065023 -2.043441 -2.776856 7.284663
4.983042 -0.214979 -8.447436 0.141318 -0.187212 -0.068948 -2.028176 -2.765113 7.293391
4.967169 -0.227167 -8.456460 0.141312 -0.187738 -0.072871 -2.012763 -2.753272 7.302135
4.951235 -0.239380 -8.465464 0.141305 -0.188262 -0.076790 -1.997203 -2.741335 7.310893
4.935238 -0.251618 -8.474445 0.141298 -0.188784 -0.080707 -1.981494 -2.729301 7.319665
4.919180 -0.263881 -8.483404 0.141291 -0.189305 -0.084621 -1.965638 -2.717170 7.328448
4.903059 -0.276170 -8.492340 0.141283 -0.189823 -0.088531 -1.949634 -2.704942 7.337242
4.886878 -0.288483 -8.501253 0.141275 -0.190339 -0.092437 -1.933482 -2.692615 7.346045
4.870635 -0.300821 -8.510143 0.141267 -0.190854 -0.096340 -1.917182 -2.680191 7.354855
4.854330 -0.313184 -8.519008 0.141258 -0.191367 -0.100240 -1.900736 -2.667668 7.363671
4.837964 -0.325571 -8.527849 0.141249 -0.191878 -0.104135 -1.884141 -2.655046 7.372492
4.821536 -0.337983 -8.536665 0.141240 -0.192387 -0.108026 -1.867400 -2.642326 7.381316
4.805048 -0.350420 -8.545456 0.141230 -0.192894 -0.111913 -1.850511 -2.629507 7.390142
4.788498 -0.362881 -8.554221 0.141220 -0.193399 -0.115795 -1.833475 -2.616588 7.398969
4.771887 -0.375365 -8.562960 0.141209 -0.193902 -0.119673 -1.816293 -2.603569 7.407794
4.755216 -0.387874 -8.571673 0.141199 -0.194404 -0.123547 -1.798964 -2.590450 7.416616
4.738483 -0.400408 -8.580358 0.141187 -0.194903 -0.127415 -1.781488 -2.577231 7.425434
4.721690 -0.412964 -8.589017 0.141176 -0.195401 -0.131278 -1.763867 -2.563912 7.434247
4.704836 -0.425545 -8.597647 0.141164 -0.195896 -0.135136 -1.746100 -2.550491 7.443052
4.687921 -0.438149 -8.606249 0.141152 -0.196390 -0.138989 -1.728187 -2.536970 7.451849
4.670946 -0.450777 -8.614822 0.141139 -0.196882 -0.142836 -1.710128 -2.523347 7.460636
4.653910 -0.463428 -8.623367 0.141126 -0.197372 -0.146678 -1.691925 -2.509622 7.469410
4.636814 -0.476103 -8.631881 0.141113 -0.197859 -0.150514 -1.673577 -2.495795 7.478171
4.619658 -0.488800 -8.640366 0.141100 -0.198345 -0.154344 -1.655084 -2.481866 7.486918
4.602442 -0.501521 -8.648821 0.141086 -0.198829 -0.158167 -1.636448 -2.467834 7.495648
4.585166 -0.514264 -8.657245 0.141071 -0.199311 -0.161985 -1.617668 -2.453699 7.504359
4.567830 -0.527030 -8.665637 0.141057 -0.199791 -0.165796 -1.598744 -2.439462 7.513052
4.550434 -0.539819 -8.673998 0.141042 -0.200269 -0.169601 -1.579677 -2.425120 7.521723
4.532979 -0.552630 -8.682327 0.141026 -0.200745 -0.173399 -1.560469 -2.410675 7.530371
4.515464 -0.565464 -8.690624 0.141011 -0.201219 -0.177190 -1.541117 -2.396126 7.538994
4.497889 -0.578320 -8.698887 0.140995 -0.201691 -0.180974 -1.521625 -2.381473 7.547592
4.480255 -0.591197 -8.707118 0.140978 -0.202162 -0.184751 -1.501991 -2.366715 7.556162
4.462562 -0.604097 -8.715314 0.140962 -0.202630 -0.188520 -1.482217 -2.351852 7.564703
4.444810 -0.617018 -8.723477 0.140945 -0.203096 -0.192283 -1.462302 -2.336884 7.573213
4.426999 -0.629961 -8.731605 0.140927 -0.203560 -0.196037 -1.442248 -2.321810 7.581690
4.409129 -0.642926 -8.739698 0.140909 -0.204022 -0.199784 -1.422055 -2.306631 7.590133
4.391201 -0.655911 -8.747756 0.140891 -0.204482 -0.203523 -1.401723 -2.291346 7.598540
4.373214 -0.668918 -8.755778 0.140873 -0.204940 -0.207254 -1.381253 -2.275954 7.606909
4.355168 -0.681945 -8.763764 0.140854 -0.205396 -0.210977 -1.360646 -2.260457 7.615240
4.337064 -0.694994 -8.771714 0.140835 -0.205850 -0.214691 -1.339902 -2.244852 7.623529
4.318902 -0.708063 -8.779626 0.140815 -0.206302 -0.218397 -1.319022 -2.229141 7.631777
4.300682 -0.721152 -8.787501 0.140795 -0.206752 -0.222094 -1.298007 -2.213322 7.639979
4.282403 -0.734262 -8.795339 0.140775 -0.207200 -0.225783 -1.276857 -2.197396 7.648136
4.264068 -0.747392 -8.803138 0.140755 -0.207646 -0.229463 -1.255572 -2.181362 7.656246
4.245674 -0.760541 -8.810898 0.140734 -0.208090 -0.233133 -1.234155 -2.165220 7.664306
4.227223 -0.773711 -8.818620 0.140713 -0.208531 -0.236795 -1.212604 -2.148970 7.672315
4.208715 -0.786900 -8.826302 0.140691 -0.208971 -0.240447 -1.190922 -2.132611 7.680272
4.190149 -0.800108 -8.833945 0.140669 -0.209409 -0.244089 -1.169109 -2.116144 7.688174
4.171526 -0.813335 -8.841547 0.140647 -0.209844 -0.247722 -1.147165 -2.099568 7.696020
4.152847 -0.826582 -8.849109 0.140624 -0.210278 -0.251345 -1.125092 -2.082883 7.703808
4.134111 -0.839847 -8.856629 0.140601 -0.210709 -0.254959 -1.102890 -2.066089 7.711537
4.115318 -0.853131 -8.864109 0.140578 -0.211138 -0.258562 -1.080560 -2.049186 7.719205
4.096469 -0.866434 -8.871547 0.140554 -0.211566 -0.262155 -1.058104 -2.032172 7.726810
4.077563 -0.879754 -8.878942 0.140530 -0.211991 -0.265737 -1.035521 -2.015049 7.734350
4.058601 -0.893093 -8.886295 0.140506 -0.212414 -0.269309 -1.012813 -1.997817 7.741824
4.039584 -0.906449 -8.893605 0.140481 -0.212835 -0.272871 -0.989980 -1.980474 7.749230
4.020510 -0.919824 -8.900872 0.140456 -0.213254 -0.276421 -0.967025 -1.963020 7.756566
4.001381 -0.933215 -8.908095 0.140430 -0.213671 -0.279961 -0.943947 -1.945457 7.763830
3.982197 -0.946624 -8.915274 0.140405 -0.214085 -0.283490 -0.920747 -1.927782 7.771022
3.962957 -0.960050 -8.922409 0.140379 -0.214498 -0.287008 -0.897427 -1.909997 7.778138
3.943662 -0.973492 -8.929498 0.140352 -0.214908 -0.290514 -0.873988 -1.892102 7.785178
3.924313 -0.986952 -8.936543 0.140325 -0.215317 -0.294008 -0.850430 -1.874095 7.792139
3.904908 -1.000427 -8.943542 0.140298 -0.215723 -0.297492 -0.826755 -1.855977 7.799021
3.885449 -1.013919 -8.950495 0.140271 -0.216127 -0.300963 -0.802964 -1.837749 7.805820
3.865936 -1.027427 -8.957401 0.140243 -0.216529 -0.304423 -0.779058 -1.819408 7.812536
3.846368 -1.040950 -8.964261 0.140215 -0.216928 -0.307870 -0.755038 -1.800957 7.819167
3.826746 -1.054489 -8.971074 0.140186 -0.217326 -0.311305 -0.730905 -1.782394 7.825711
3.807071 -1.068043 -8.977839 0.140157 -0.217722 -0.314728 -0.706660 -1.763720 7.832166
3.787342 -1.081613 -8.984557 0.140128 -0.218115 -0.318139 -0.682305 -1.744935 7.838531
3.767559 -1.095197 -8.991226 0.140099 -0.218506 -0.321537 -0.657841 -1.726038 7.844803
3.747723 -1.108796 -8.997846 0.140069 -0.218895 -0.324922 -0.633268 -1.707029 7.850982
3.727835 -1.122409 -9.004418 0.140038 -0.219282 -0.328295 -0.608589 -1.687909 7.857066
3.707893 -1.136036 -9.010941 0.140008 -0.219667 -0.331655 -0.583804 -1.668678 7.863052
3.687898 -1.149678 -9.017414 0.139977 -0.220049 -0.335001 -0.558915 -1.649335 7.868940
3.667851 -1.163332 -9.023836 0.139946 -0.220430 -0.338334 -0.533923 -1.629880 7.874727
3.647752 -1.177001 -9.030209 0.139914 -0.220808 -0.341654 -0.508829 -1.610314 7.880411
3.627601 -1.190682 -9.036531 0.139882 -0.221184 -0.344961 -0.483634 -1.590637 7.885992
3.607398 -1.204377 -9.042801 0.139850 -0.221558 -0.348253 -0.458341 -1.570848 7.891468
3.587143 -1.218084 -9.049021 0.139817 -0.221929 -0.351532 -0.432950 -1.550948 7.896836
3.566837 -1.231804 -9.055188 0.139784 -0.222299 -0.354798 -0.407463 -1.530937 7.902095
3.546480 -1.245536 -9.061304 0.139751 -0.222666 -0.358049 -0.381882 -1.510814 7.907244
3.526071 -1.259280 -9.067367 0.139717 -0.223031 -0.361286 -0.356207 -1.490581 7.912281
3.505612 -1.273035 -9.073377 0.139683 -0.223394 -0.364509 -0.330439 -1.470237 7.917204
3.485102 -1.286802 -9.079334 0.139648 -0.223755 -0.367717 -0.304582 -1.449782 7.922011
3.464542 -1.300581 -9.085237 0.139614 -0.224113 -0.370911 -0.278635 -1.429217 7.926702
3.443932 -1.314370 -9.091087 0.139579 -0.224469 -0.374090 -0.252602 -1.408541 7.931274
3.423272 -1.328170 -9.096883 0.139543 -0.224823 -0.377255 -0.226482 -1.387755 7.935726
3.402562 -1.341980 -9.102624 0.139507 -0.225175 -0.380404 -0.200278 -1.366859 7.940056
3.381803 -1.355801 -9.108310 0.139471 -0.225525 -0.383539 -0.173991 -1.345853 7.944263
3.360995 -1.369631 -9.113941 0.139435 -0.225872 -0.386658 -0.147622 -1.324737 7.948344
3.340137 -1.383471 -9.119517 0.139398 -0.226217 -0.389762 -0.121175 -1.303513 7.952300
3.319231 -1.397321 -9.125037 0.139361 -0.226560 -0.392851 -0.094649 -1.282179 7.956127
3.298276 -1.411180 -9.130501 0.139323 -0.226901 -0.395924 -0.068047 -1.260736 7.959825
3.277274 -1.425047 -9.135908 0.139286 -0.227239 -0.398982 -0.041370 -1.239185 7.963392
3.256223 -1.438923 -9.141259 0.139247 -0.227576 -0.402024 -0.014620 -1.217525 7.966826
3.235124 -1.452808 -9.146553 0.139209 -0.227909 -0.405050 0.012202 -1.195758 7.970126
3.213977 -1.466700 -9.151789 0.139170 -0.228241 -0.408060 0.039093 -1.173883 7.973291
3.192784 -1.480601 -9.156967 0.139131 -0.228571 -0.411053 0.066052 -1.151900 7.976319
3.171543 -1.494508 -9.162088 0.139091 -0.228898 -0.414031 0.093077 -1.129811 7.979208
3.150256 -1.508423 -9.167150 0.139051 -0.229223 -0.416992 0.120166 -1.107615 7.981958
3.128922 -1.522345 -9.172154 0.139011 -0.229545 -0.419937 0.147318 -1.085314 7.984566
3.107541 -1.536274 -9.177099 0.138971 -0.229866 -0.422866 0.174532 -1.062906 7.987031
3.086115 -1.550209 -9.181985 0.138930 -0.230184 -0.425777 0.201804 -1.040393 7.989353
3.064643 -1.564150 -9.186811 0.138888 -0.230500 -0.428672 0.229133 -1.017776 7.991529
3.043125 -1.578097 -9.191578 0.138847 -0.230813 -0.431550 0.256518 -0.995054 7.993558
3.021562 -1.592049 -9.196284 0.138805 -0.231125 -0.434411 0.283957 -0.972228 7.995439
2.999954 -1.606006 -9.200930 0.138762 -0.231434 -0.437254 0.311447 -0.949299 7.997170
2.978302 -1.619969 -9.205516 0.138720 -0.231740 -0.440081 0.338987 -0.926266 7.998751
2.956604 -1.633936 -9.210040 0.138677 -0.232045 -0.442890 0.366575 -0.903132 8.000180
2.934863 -1.647908 -9.214504 0.138634 -0.232347 -0.445681 0.394209 -0.879896 8.001455
2.913078 -1.661883 -9.218906 0.138590 -0.232647 -0.448455 0.421888 -0.856558 8.002576
2.891249 -1.675863 -9.223246 0.138546 -0.232944 -0.451211 0.449608 -0.833120 8.003541
2.869377 -1.689846 -9.227524 0.138502 -0.233240 -0.453950 0.477369 -0.809582 8.004349
2.847461 -1.703832 -9.231740 0.138457 -0.233533 -0.456670 0.505168 -0.785944 8.004998
2.825503 -1.717821 -9.235893 0.138412 -0.233823 -0.459373 0.533003 -0.762208 8.005489
2.803502 -1.731812 -9.239984 0.138366 -0.234112 -0.462057 0.560873 -0.738373 8.005818
2.781459 -1.745806 -9.244011 0.138321 -0.234398 -0.464723 0.588776 -0.714441 8.005986
2.759374 -1.759802 -9.247976 0.138275 -0.234681 -0.467371 0.616708 -0.690412 8.005992
2.737247 -1.773799 -9.251876 0.138228 -0.234963 -0.470000 0.644669 -0.666287 8.005833
2.715079 -1.787798 -9.255713 0.138182 -0.235242 -0.472611 0.672656 -0.642066 8.005510
2.692869 -1.801798 -9.259486 0.138134 -0.235519 -0.475203 0.700668 -0.617751 8.005020
2.670619 -1.815799 -9.263194 0.138087 -0.235793 -0.477776 0.728702 -0.593342 8.004364
2.648328 -1.829800 -9.266838 0.138039 -0.236065 -0.480331 0.756756 -0.568840 8.003539
2.625997 -1.843802 -9.270417 0.137991 -0.236335 -0.482866 0.784828 -0.544246 8.002546
2.603626 -1.857803 -9.273931 0.137943 -0.236602 -0.485383 0.812916 -0.519560 8.001383
2.581216 -1.871804 -9.277380 0.137894 -0.236868 -0.487880 0.841019 -0.494783 8.000049
2.558766 -1.885804 -9.280763 0.137845 -0.237130 -0.490358 0.869133 -0.469917 7.998543
2.536277 -1.899803 -9.284080 0.137795 -0.237391 -0.492817 0.897257 -0.444962 7.996864
2.513749 -1.913801 -9.287332 0.137746 -0.237649 -0.495256 0.925389 -0.419918 7.995012
2.491182 -1.927797 -9.290517 0.137695 -0.237905 -0.497676 0.953526 -0.394788 7.992986
2.468578 -1.941791 -9.293636 0.137645 -0.238158 -0.500076 0.981667 -0.369571 7.990785
2.445936 -1.955783 -9.296688 0.137594 -0.238409 -0.502456 1.009809 -0.344269 7.988408
2.423256 -1.969772 -9.299674 0.137543 -0.238658 -0.504816 1.037950 -0.318882 7.985855
2.400539 -1.983758 -9.302592 0.137491 -0.238904 -0.507157 1.066088 -0.293412 7.983124
2.377785 -1.997741 -9.305443 0.137440 -0.239148 -0.509477 1.094222 -0.267859 7.980215
2.354994 -2.011720 -9.308227 0.137387 -0.239390 -0.511778 1.122348 -0.242225 7.977127
2.332167 -2.025695 -9.310943 0.137335 -0.239629 -0.514058 1.150465 -0.216511 7.973861
2.309304 -2.039667 -9.313591 0.137282 -0.239866 -0.516318 1.178570 -0.190717 7.970414
2.286405 -2.053633 -9.316171 0.137229 -0.240101 -0.518557 1.206661 -0.164845 7.966787
2.263472 -2.067595 -9.318683 0.137175 -0.240333 -0.520776 1.234737 -0.138896 7.962979
2.240503 -2.081552 -9.321126 0.137121 -0.240562 -0.522975 1.262795 -0.112870 7.958989
2.217499 -2.095503 -9.323501 0.137067 -0.240790 -0.525152 1.290833 -0.086770 7.954818
2.194461 -2.109448 -9.325807 0.137013 -0.241015 -0.527309 1.318848 -0.060595 7.950463
2.171389 -2.123388 -9.328043 0.136958 -0.241238 -0.529446 1.346839 -0.034348 7.945926
2.148283 -2.137320 -9.330211 0.136903 -0.241458 -0.531561 1.374804 -0.008029 7.941206
2.125144 -2.151247 -9.332310 0.136847 -0.241676 -0.533655 1.402739 0.018361 7.936302
2.101972 -2.165165 -9.334338 0.136791 -0.241891 -0.535729 1.430644 0.044820 7.931214
2.078767 -2.179077 -9.336298 0.136735 -0.242104 -0.537781 1.458516 0.071347 7.925941
2.055529 -2.192981 -9.338187 0.136678 -0.242315 -0.539812 1.486352 0.097941 7.920484
2.032260 -2.206877 -9.340006 0.136621 -0.242523 -0.541821 1.514151 0.124600 7.914842
2.008959 -2.220764 -9.341755 0.136564 -0.242729 -0.543810 1.541911 0.151324 7.909015
1.985626 -2.234643 -9.343434 0.136507 -0.242933 -0.545776 1.569628 0.178112 7.903002
1.962263 -2.248512 -9.345042 0.136449 -0.243134 -0.547722 1.597302 0.204961 7.896804
1.938868 -2.262373 -9.346580 0.136390 -0.243333 -0.549645 1.624930 0.231870 7.890421
1.915444 -2.276223 -9.348047 0.136332 -0.243529 -0.551547 1.652510 0.258839 7.883851
1.891989 -2.290064 -9.349443 0.136273 -0.243723 -0.553427 1.680040 0.285866 7.877096
1.868504 -2.303894 -9.350768 0.136214 -0.243915 -0.555285 1.707517 0.312950 7.870156
1.844991 -2.317714 -9.352022 0.136154 -0.244104 -0.557122 1.734940 0.340089 7.863029
1.821448 -2.331522 -9.353204 0.136094 -0.244291 -0.558936 1.762306 0.367282 7.855717
1.797877 -2.345319 -9.354315 0.136034 -0.244475 -0.560728 1.789613 0.394527 7.848218
1.774277 -2.359105 -9.355355 0.135973 -0.244657 -0.562499 1.816860 0.421824 7.840535
1.750649 -2.372879 -9.356323 0.135912 -0.244836 -0.564246 1.844044 0.449171 7.832666
1.726994 -2.386640 -9.357219 0.135851 -0.245013 -0.565972 1.871162 0.476565 7.824611
1.703312 -2.400389 -9.358043 0.135789 -0.245188 -0.567675 1.898214 0.504007 7.816371
1.679602 -2.414125 -9.358795 0.135727 -0.245360 -0.569356 1.925197 0.531495 7.807947
1.655866 -2.427847 -9.359475 0.135665 -0.245530 -0.571015 1.952108 0.559026 7.799337
1.632104 -2.441556 -9.360082 0.135602 -0.245698 -0.572651 1.978946 0.586600 7.790544
1.608316 -2.455251 -9.360618 0.135539 -0.245863 -0.574264 2.005709 0.614215 7.781566
1.584503 -2.468932 -9.361080 0.135476 -0.246025 -0.575855 2.032395 0.641870 7.772405
1.560665 -2.482598 -9.361471 0.135412 -0.246185 -0.577422 2.059002 0.669563 7.763060
1.536801 -2.496249 -9.361788 0.135349 -0.246343 -0.578967 2.085527 0.697293 7.753532
1.512914 -2.509885 -9.362033 0.135284 -0.246498 -0.580490 2.111970 0.725057 7.743822
1.489002 -2.523506 -9.362205 0.135220 -0.246651 -0.581989 2.138327 0.752856 7.733930
1.465067 -2.537111 -9.362305 0.135155 -0.246801 -0.583465 2.164597 0.780686 7.723856
1.441109 -2.550699 -9.362331 0.135089 -0.246949 -0.584919 2.190778 0.808547 7.713601
1.417127 -2.564271 -9.362284 0.135024 -0.247095 -0.586349 2.216868 0.836438 7.703166
1.393123 -2.577826 -9.362164 0.134958 -0.247238 -0.587756 2.242865 0.864355 7.692551
1.369097 -2.591364 -9.361971 0.134891 -0.247379 -0.589140 2.268767 0.892298 7.681757
1.345049 -2.604884 -9.361705 0.134825 -0.247517 -0.590500 2.294573 0.920266 7.670785
1.320980 -2.618387 -9.361366 0.134758 -0.247652 -0.591838 2.320281 0.948257 7.659635
1.296889 -2.631871 -9.360953 0.134691 -0.247786 -0.593151 2.345888 0.976268 7.648308
1.272778 -2.645337 -9.360466 0.134623 -0.247917 -0.594442 2.371393 1.004299 7.636804
1.248647 -2.658784 -9.359906 0.134555 -0.248045 -0.595709 2.396794 1.032348 7.625125
1.224496 -2.672212 -9.359273 0.134487 -0.248171 -0.596953 2.422090 1.060413 7.613272
1.200325 -2.685620 -9.358566 0.134418 -0.248295 -0.598172 2.447278 1.088493 7.601244
1.176134 -2.699009 -9.357786 0.134349 -0.248416 -0.599369 2.472357 1.116586 7.589044
1.151925 -2.712378 -9.356932 0.134280 -0.248534 -0.600541 2.497325 1.144690 7.576672
1.127698 -2.725726 -9.356004 0.134210 -0.248650 -0.601690 2.522181 1.172804 7.564128
1.103453 -2.739053 -9.355003 0.134140 -0.248764 -0.602816 2.546922 1.200927 7.551415
1.079190 -2.752360 -9.353928 0.134070 -0.248875 -0.603917 2.571548 1.229055 7.538532
1.054909 -2.765645 -9.352779 0.133999 -0.248984 -0.604995 2.596056 1.257189 7.525481
1.030612 -2.778908 -9.351556 0.133928 -0.249090 -0.606048 2.620445 1.285326 7.512264
1.006298 -2.792150 -9.350260 0.133857 -0.249194 -0.607078 2.644713 1.313464 7.498880
0.981968 -2.805369 -9.348890 0.133786 -0.249296 -0.608084 2.668859 1.341602 7.485332
0.957622 -2.818565 -9.347446 0.133714 -0.249395 -0.609066 2.692881 1.369738 7.471620
0.933261 -2.831739 -9.345928 0.133641 -0.249491 -0.610023 2.716779 1.397871 7.457746
0.908885 -2.844889 -9.344337 0.133569 -0.249585 -0.610957 2.740549 1.425999 7.443710
0.884494 -2.858016 -9.342672 0.133496 -0.249677 -0.611867 2.764191 1.454120 7.429514
0.860089 -2.871119 -9.340933 0.133423 -0.249766 -0.612752 2.787704 1.482233 7.415160
0.835670 -2.884197 -9.339120 0.133349 -0.249853 -0.613613 2.811085 1.510335 7.400648
0.811238 -2.897251 -9.337233 0.133275 -0.249937 -0.614450 2.834335 1.538425 7.385980
0.786793 -2.910281 -9.335273 0.133201 -0.250018 -0.615263 2.857450 1.566502 7.371157
0.762335 -2.923285 -9.333239 0.133126 -0.250098 -0.616051 2.880431 1.594564 7.356180
0.737865 -2.936263 -9.331131 0.133051 -0.250174 -0.616815 2.903275 1.622609 7.341051
0.713382 -2.949216 -9.328950 0.132976 -0.250249 -0.617555 2.925981 1.650636 7.325772
0.688889 -2.962143 -9.326695 0.132901 -0.250321 -0.618270 2.948549 1.678642 7.310343
0.664384 -2.975044 -9.324366 0.132825 -0.250390 -0.618961 2.970976 1.706626 7.294767
0.639869 -2.987918 -9.321964 0.132749 -0.250457 -0.619628 2.993263 1.734587 7.279044
0.615343 -3.000765 -9.319488 0.132672 -0.250521 -0.620270 3.015406 1.762523 7.263177
0.590807 -3.013584 -9.316939 0.132595 -0.250583 -0.620888 3.037407 1.790432 7.247166
0.566262 -3.026376 -9.314317 0.132518 -0.250643 -0.621481 3.059263 1.818312 7.231013
0.541707 -3.039140 -9.311621 0.132440 -0.250700 -0.622049 3.080973 1.846162 7.214720
0.517144 -3.051876 -9.308851 0.132363 -0.250754 -0.622593 3.102536 1.873981 7.198289
0.492573 -3.064584 -9.306009 0.132284 -0.250806 -0.623113 3.123952 1.901765 7.181721
0.467993 -3.077263 -9.303093 0.132206 -0.250856 -0.623607 3.145219 1.929515 7.165017
0.443406 -3.089913 -9.300104 0.132127 -0.250903 -0.624078 3.166337 1.957228 7.148179
0.418812 -3.102533 -9.297042 0.132048 -0.250948 -0.624523 3.187304 1.984903 7.131210
0.394211 -3.115124 -9.293907 0.131969 -0.250990 -0.624944 3.208120 2.012537 7.114110
0.369604 -3.127684 -9.290699 0.131889 -0.251029 -0.625340 3.228783 2.040130 7.096882
0.344991 -3.140215 -9.287418 0.131809 -0.251067 -0.625712 3.249294 2.067679 7.079526
0.320372 -3.152715 -9.284064 0.131728 -0.251101 -0.626058 3.269651 2.095184 7.062046
0.295748 -3.165184 -9.280638 0.131647 -0.251134 -0.626381 3.289853 2.122642 7.044442
0.271119 -3.177622 -9.277139 0.131566 -0.251163 -0.626678 3.309900 2.150052 7.026716
0.246486 -3.190029 -9.273568 0.131485 -0.251191 -0.626951 3.329791 2.177412 7.008871
0.221848 -3.202404 -9.269924 0.131403 -0.251215 -0.627199 3.349525 2.204721 6.990907
0.197208 -3.214747 -9.266208 0.131321 -0.251238 -0.627422 3.369103 2.231977 6.972828
0.172564 -3.227058 -9.262420 0.131239 -0.251258 -0.627620 3.388522 2.259179 6.954634
0.147917 -3.239337 -9.258559 0.131156 -0.251275 -0.627794 3.407783 2.286324 6.936327
0.123268 -3.251582 -9.254627 0.131073 -0.251290 -0.627942 3.426886 2.313412 6.917910
0.098617 -3.263795 -9.250623 0.130990 -0.251302 -0.628066 3.445829 2.340441 6.899384
0.073964 -3.275974 -9.246547 0.130906 -0.251312 -0.628166 3.464612 2.367409 6.880751
0.049310 -3.288120 -9.242399 0.130822 -0.251320 -0.628240 3.483236 2.394315 6.862013
0.024655 -3.300231 -9.238180 0.130737 -0.251325 -0.628290 3.501698 2.421158 6.843172
0.000000 -3.312309 -9.233889 0.130653 -0.251327 -0.628314 3.520000 2.447935 6.824230
-0.024655 -3.324352 -9.229527 0.130568 -0.251327 -0.628314 3.538141 2.474645 6.805189
-0.049310 -3.336361 -9.225094 0.130483 -0.251325 -0.628290 3.556120 2.501287 6.786050
-0.073964 -3.348334 -9.220590 0.130397 -0.251320 -0.628240 3.573937 2.527860 6.766816
-0.098617 -3.360272 -9.216016 0.130311 -0.251312 -0.628166 3.591593 2.554362 6.747488
-0.123268 -3.372175 -9.211370 0.130225 -0.251302 -0.628066 3.609086 2.580791 6.728069
-0.147917 -3.384042 -9.206654 0.130138 -0.251290 -0.627942 3.626417 2.607145 6.708561
-0.172564 -3.395873 -9.201867 0.130051 -0.251275 -0.627794 3.643586 2.633425 6.688965
-0.197208 -3.407668 -9.197011 0.129964 -0.251258 -0.627620 3.660592 2.659628 6.669284
-0.221848 -3.419427 -9.192084 0.129876 -0.251238 -0.627422 3.677436 2.685752 6.649519
-0.246486 -3.431148 -9.187087 0.129789 -0.251215 -0.627199 3.694117 2.711797 6.629672
-0.271119 -3.442833 -9.182020 0.129700 -0.251191 -0.626951 3.710636 2.737760 6.609746
-0.295748 -3.454480 -9.176884 0.129612 -0.251163 -0.626678 3.726993 2.763642 6.589743
-0.320372 -3.466090 -9.171678 0.129523 -0.251134 -0.626381 3.743187 2.789439 6.569664
-0.344991 -3.477662 -9.166403 0.129434 -0.251101 -0.626058 3.759219 2.815152 6.549511
-0.369604 -3.489196 -9.161059 0.129344 -0.251067 -0.625712 3.775089 2.840778 6.529287
-0.394211 -3.500692 -9.155646 0.129255 -0.251029 -0.625340 3.790797 2.866316 6.508993
-0.418812 -3.512149 -9.150164 0.129164 -0.250990 -0.624944 3.806344 2.891766 6.488632
-0.443406 -3.523568 -9.144614 0.129074 -0.250948 -0.624523 3.821729 2.917125 6.468205
-0.467993 -3.534947 -9.138995 0.128983 -0.250903 -0.624078 3.836953 2.942393 6.447714
-0.492573 -3.546288 -9.133308 0.128892 -0.250856 -0.623607 3.852016 2.967567 6.427162
-0.517144 -3.557589 -9.127553 0.128801 -0.250806 -0.623113 3.866919 2.992648 6.406551
-0.541707 -3.568850 -9.121730 0.128709 -0.250754 -0.622593 3.881662 3.017634 6.385882
-0.566262 -3.580071 -9.115840 0.128617 -0.250700 -0.622049 3.896245 3.042523 6.365158
-0.590807 -3.591253 -9.109882 0.128525 -0.250643 -0.621481 3.910669 3.067314 6.344379
-0.615343 -3.602394 -9.103857 0.128432 -0.250583 -0.620888 3.924934 3.092007 6.323550
-0.639869 -3.613494 -9.097765 0.128339 -0.250521 -0.620270 3.939042 3.116599 6.302671
-0.664384 -3.624554 -9.091606 0.128246 -0.250457 -0.619628 3.952991 3.141091 6.281744
-0.688889 -3.635573 -9.085381 0.128152 -0.250390 -0.618961 3.966784 3.165480 6.260772
-0.713382 -3.646550 -9.079089 0.128058 -0.250321 -0.618270 3.980420 3.189766 6.239756
-0.737865 -3.657486 -9.072731 0.127964 -0.250249 -0.617555 3.993900 3.213948 6.218698
-0.762335 -3.668381 -9.066307 0.127870 -0.250174 -0.616815 4.007225 3.238024 6.197600
-0.786793 -3.679233 -9.059818 0.127775 -0.250098 -0.616051 4.020396 3.261993 6.176465
-0.811238 -3.690044 -9.053263 0.127680 -0.250018 -0.615263 4.033412 3.285855 6.155294
-0.835670 -3.700812 -9.046643 0.127584 -0.249937 -0.614450 4.046276 3.309608 6.134089
-0.860089 -3.711538 -9.039958 0.127488 -0.249853 -0.613613 4.058987 3.333251 6.112852
-0.884494 -3.722221 -9.033208 0.127392 -0.249766 -0.612752 4.071547 3.356784 6.091585
-0.908885 -3.732861 -9.026393 0.127296 -0.249677 -0.611867 4.083957 3.380205 6.070289
-0.933261 -3.743458 -9.019515 0.127199 -0.249585 -0.610957 4.096216 3.403514 6.048967
-0.957622 -3.754012 -9.012572 0.127102 -0.249491 -0.610023 4.108327 3.426709 6.027621
-0.981968 -3.764523 -9.005565 0.127004 -0.249395 -0.609066 4.120290 3.449789 6.006252
-1.006298 -3.774990 -8.998495 0.126907 -0.249296 -0.608084 4.132105 3.472754 5.984863
-1.030612 -3.785413 -8.991362 0.126809 -0.249194 -0.607078 4.143775 3.495603 5.963454
-1.054909 -3.795792 -8.984166 0.126710 -0.249090 -0.606048 4.155300 3.518335 5.942029
-1.079190 -3.806127 -8.976906 0.126612 -0.248984 -0.604995 4.166680 3.540949 5.920588
-1.103453 -3.816417 -8.969585 0.126513 -0.248875 -0.603917 4.177917 3.563444 5.899133
-1.127698 -3.826663 -8.962201 0.126414 -0.248764 -0.602816 4.189013 3.585819 5.877667
-1.151925 -3.836864 -8.954755 0.126314 -0.248650 -0.601690 4.199967 3.608074 5.856191
-1.176134 -3.847021 -8.947248 0.126214 -0.248534 -0.600541 4.210782 3.630208 5.834707
-1.200325 -3.857132 -8.939679 0.126114 -0.248416 -0.599369 4.221458 3.652219 5.813217
-1.224496 -3.867198 -8.932048 0.126013 -0.248295 -0.598172 4.231996 3.674108 5.791721
-1.248647 -3.877219 -8.924357 0.125913 -0.248171 -0.596953 4.242399 3.695874 5.770223
-1.272778 -3.887194 -8.916606 0.125811 -0.248045 -0.595709 4.252666 3.717515 5.748723
-1.296889 -3.897123 -8.908794 0.125710 -0.247917 -0.594442 4.262799 3.739031 5.727224
-1.320980 -3.907007 -8.900922 0.125608 -0.247786 -0.593151 4.272799 3.760422 5.705726
-1.345049 -3.916844 -8.892990 0.125506 -0.247652 -0.591838 4.282668 3.781686 5.684232
-1.369097 -3.926636 -8.884999 0.125404 -0.247517 -0.590500 4.292407 3.802824 5.662744
-1.393123 -3.936381 -8.876949 0.125301 -0.247379 -0.589140 4.302018 3.823834 5.641262
-1.417127 -3.946079 -8.868839 0.125198 -0.247238 -0.587756 4.311500 3.844716 5.619789
-1.441109 -3.955731 -8.860671 0.125095 -0.247095 -0.586349 4.320857 3.865469 5.598325
-1.465067 -3.965336 -8.852445 0.124991 -0.246949 -0.584919 4.330088 3.886093 5.576873
-1.489002 -3.974894 -8.844161 0.124887 -0.246801 -0.583465 4.339197 3.906587 5.555434
-1.512914 -3.984405 -8.835820 0.124783 -0.246651 -0.581989 4.348183 3.926951 5.534010
-1.536801 -3.993869 -8.827420 0.124679 -0.246498 -0.580490 4.357048 3.947184 5.512601
-1.560665 -4.003286 -8.818964 0.124574 -0.246343 -0.578967 4.365795 3.967285 5.491210
-1.584503 -4.012655 -8.810451 0.124469 -0.246185 -0.577422 4.374423 3.987254 5.469838
-1.608316 -4.021976 -8.801882 0.124363 -0.246025 -0.575855 4.382935 4.007091 5.448486
-1.632104 -4.031250 -8.793256 0.124257 -0.245863 -0.574264 4.391333 4.026796 5.427155
-1.655866 -4.040476 -8.784575 0.124151 -0.245698 -0.572651 4.399617 4.046366 5.405848
-1.679602 -4.049654 -8.775838 0.124045 -0.245530 -0.571015 4.407789 4.065803 5.384565
-1.703312 -4.058784 -8.767046 0.123938 -0.245360 -0.569356 4.415851 4.085106 5.363308
-1.726994 -4.067866 -8.758200 0.123831 -0.245188 -0.567675 4.423804 4.104275 5.342077
-1.750649 -4.076899 -8.749298 0.123724 -0.245013 -0.565972 4.431649 4.123308 5.320875
-1.774277 -4.085884 -8.740343 0.123617 -0.244836 -0.564246 4.439389 4.142206 5.299703
-1.797877 -4.094821 -8.731333 0.123509 -0.244657 -0.562499 4.447025 4.160969 5.278561
-1.821448 -4.103709 -8.722270 0.123400 -0.244475 -0.560728 4.454558 4.179596 5.257451
-1.844991 -4.112548 -8.713154 0.123292 -0.244291 -0.558936 4.461990 4.198086 5.236375
-1.868504 -4.121338 -8.703985 0.123183 -0.244104 -0.557122 4.469323 4.216440 5.215332
-1.891989 -4.130080 -8.694764 0.123074 -0.243915 -0.555285 4.476557 4.234657 5.194326
-1.915444 -4.138772 -8.685490 0.122965 -0.243723 -0.553427 4.483696 4.252736 5.173355
-1.938868 -4.147415 -8.676165 0.122855 -0.243529 -0.551547 4.490740 4.270679 5.152423
-1.962263 -4.156010 -8.666788 0.122745 -0.243333 -0.549645 4.497690 4.288484 5.131529
-1.985626 -4.164554 -8.657360 0.122634 -0.243134 -0.547722 4.504550 4.306151 5.110675
-2.008959 -4.173050 -8.647881 0.122524 -0.242933 -0.545776 4.511320 4.323680 5.089861
-2.032260 -4.181496 -8.638351 0.122413 -0.242729 -0.543810 4.518001 4.341070 5.069090
-2.055529 -4.189893 -8.628772 0.122302 -0.242523 -0.541821 4.524596 4.358323 5.048361
-2.078767 -4.198239 -8.619142 0.122190 -0.242315 -0.539812 4.531107 4.375436 5.027676
-2.101972 -4.206537 -8.609464 0.122078 -0.242104 -0.537781 4.537534 4.392411 5.007036
-2.125144 -4.214784 -8.599736 0.121966 -0.241891 -0.535729 4.543880 4.409248 4.986441
-2.148283 -4.222982 -8.589959 0.121854 -0.241676 -0.533655 4.550146 4.425945 4.965892
-2.171389 -4.231130 -8.580135 0.121741 -0.241458 -0.531561 4.556334 4.442503 4.945391
-2.194461 -4.239228 -8.570262 0.121628 -0.241238 -0.529446 4.562445 4.458921 4.924938
-2.217499 -4.247276 -8.560342 0.121515 -0.241015 -0.527309 4.568482 4.475201 4.904534
-2.240503 -4.255274 -8.550374 0.121401 -0.240790 -0.525152 4.574445 4.491341 4.884179
-2.263472 -4.263221 -8.540360 0.121287 -0.240562 -0.522975 4.580337 4.507342 4.863875
-2.286405 -4.271119 -8.530299 0.121173 -0.240333 -0.520776 4.586160 4.523203 4.843622
-2.309304 -4.278966 -8.520191 0.121058 -0.240101 -0.518557 4.591914 4.538924 4.823421
-2.332167 -4.286764 -8.510039 0.120943 -0.239866 -0.516318 4.597602 4.554507 4.803272
-2.354994 -4.294510 -8.499840 0.120828 -0.239629 -0.514058 4.603226 4.569949 4.783177
-2.377785 -4.302207 -8.489597 0.120713 -0.239390 -0.511778 4.608786 4.585252 4.763135
-2.400539 -4.309853 -8.479309 0.120597 -0.239148 -0.509477 4.614285 4.600416 4.743148
-2.423256 -4.317449 -8.468977 0.120481 -0.238904 -0.507157 4.619724 4.615439 4.723216
-2.445936 -4.324994 -8.458601 0.120365 -0.238658 -0.504816 4.625106 4.630324 4.703339
-2.468578 -4.332489 -8.448181 0.120248 -0.238409 -0.502456 4.630431 4.645069 4.683518
-2.491182 -4.339934 -8.437718 0.120131 -0.238158 -0.500076 4.635702 4.659674 4.663754
-2.513749 -4.347327 -8.427213 0.120014 -0.237905 -0.497676 4.640919 4.674141 4.644047
-2.536277 -4.354671 -8.416665 0.119896 -0.237649 -0.495256 4.646086 4.688468 4.624398
-2.558766 -4.361964 -8.406075 0.119779 -0.237391 -0.492817 4.651202 4.702656 4.604807
-2.581216 -4.369206 -8.395443 0.119661 -0.237130 -0.490358 4.656271 4.716704 4.585274
-2.603626 -4.376397 -8.384770 0.119542 -0.236868 -0.487880 4.661294 4.730614 4.565800
-2.625997 -4.383539 -8.374057 0.119423 -0.236602 -0.485383 4.666272 4.744385 4.546385
-2.648328 -4.390629 -8.363303 0.119305 -0.236335 -0.482866 4.671207 4.758017 4.527030
-2.670619 -4.397669 -8.352509 0.119185 -0.236065 -0.480331 4.676100 4.771511 4.507735
-2.692869 -4.404658 -8.341675 0.119066 -0.235793 -0.477776 4.680954 4.784866 4.488499
-2.715079 -4.411597 -8.330802 0.118946 -0.235519 -0.475203 4.685770 4.798083 4.469325
-2.737247 -4.418485 -8.319890 0.118826 -0.235242 -0.472611 4.690549 4.811161 4.450211
-2.759374 -4.425322 -8.308940 0.118705 -0.234963 -0.470000 4.695293 4.824102 4.431158
-2.781459 -4.432109 -8.297951 0.118584 -0.234681 -0.467371 4.700004 4.836905 4.412166
-2.803502 -4.438845 -8.286925 0.118463 -0.234398 -0.464723 4.704684 4.849570 4.393236
-2.825503 -4.445531 -8.275862 0.118342 -0.234112 -0.462057 4.709333 4.862098 4.374367
-2.847461 -4.452166 -8.264761 0.118220 -0.233823 -0.459373 4.713954 4.874488 4.355561
-2.869377 -4.458751 -8.253624 0.118098 -0.233533 -0.456670 4.718547 4.886741 4.336816
-2.891249 -4.465285 -8.242452 0.117976 -0.233240 -0.453950 4.723116 4.898858 4.318133
-2.913078 -4.471769 -8.231243 0.117854 -0.232944 -0.451211 4.727660 4.910838 4.299512
-2.934863 -4.478202 -8.219999 0.117731 -0.232647 -0.448455 4.732182 4.922681 4.280953
-2.956604 -4.484585 -8.208720 0.117608 -0.232347 -0.445681 4.736684 4.934389 4.262457
-2.978302 -4.490918 -8.197407 0.117485 -0.232045 -0.442890 4.741166 4.945960 4.244023
-2.999954 -4.497200 -8.186059 0.117361 -0.231740 -0.440081 4.745630 4.957395 4.225651
-3.021562 -4.503431 -8.174678 0.117237 -0.231434 -0.437254 4.750078 4.968695 4.207342
-3.043125 -4.509613 -8.163264 0.117113 -0.231125 -0.434411 4.754512 4.979860 4.189094
-3.064643 -4.515744 -8.151817 0.116988 -0.230813 -0.431550 4.758932 4.990890 4.170910
-3.086115 -4.521825 -8.140337 0.116863 -0.230500 -0.428672 4.763340 5.001785 4.152787
-3.107541 -4.527856 -8.128825 0.116738 -0.230184 -0.425777 4.767737 5.012546 4.134727
-3.128922 -4.533837 -8.117282 0.116613 -0.229866 -0.422866 4.772126 5.023172 4.116728
-3.150256 -4.539768 -8.105707 0.116487 -0.229545 -0.419937 4.776507 5.033665 4.098792
-3.171543 -4.545649 -8.094102 0.116361 -0.229223 -0.416992 4.780883 5.044024 4.080917
-3.192784 -4.551480 -8.082466 0.116235 -0.228898 -0.414031 4.785253 5.054249 4.063105
-3.213977 -4.557261 -8.070800 0.116108 -0.228571 -0.411053 4.789620 5.064342 4.045354
-3.235124 -4.562993 -8.059105 0.115982 -0.228241 -0.408060 4.793985 5.074301 4.027664
-3.256223 -4.568675 -8.047380 0.115854 -0.227909 -0.405050 4.798349 5.084128 4.010035
-3.277274 -4.574307 -8.035627 0.115727 -0.227576 -0.402024 4.802715 5.093823 3.992468
-3.298276 -4.579889 -8.023845 0.115599 -0.227239 -0.398982 4.807082 5.103386 3.974961
-3.319231 -4.585422 -8.012035 0.115471 -0.226901 -0.395924 4.811452 5.112817 3.957515
-3.340137 -4.590906 -8.000198 0.115343 -0.226560 -0.392851 4.815827 5.122117 3.940130
-3.360995 -4.596340 -7.988334 0.115215 -0.226217 -0.389762 4.820209 5.131286 3.922804
-3.381803 -4.601725 -7.976442 0.115086 -0.225872 -0.386658 4.824597 5.140324 3.905539
-3.402562 -4.607061 -7.964525 0.114957 -0.225525 -0.383539 4.828994 5.149232 3.888333
-3.423272 -4.612348 -7.952582 0.114827 -0.225175 -0.380404 4.833401 5.158009 3.871186
-3.443932 -4.617585 -7.940613 0.114698 -0.224823 -0.377255 4.837818 5.166657 3.854098
-3.464542 -4.622774 -7.928619 0.114568 -0.224469 -0.374090 4.842248 5.175175 3.837069
-3.485102 -4.627914 -7.916601 0.114437 -0.224113 -0.370911 4.846691 5.183564 3.820099
-3.505612 -4.633006 -7.904558 0.114307 -0.223755 -0.367717 4.851148 5.191824 3.803186
-3.526071 -4.638049 -7.892492 0.114176 -0.223394 -0.364509 4.855622 5.199955 3.786331
-3.546480 -4.643043 -7.880402 0.114045 -0.223031 -0.361286 4.860112 5.207959 3.769533
-3.566837 -4.647989 -7.868289 0.113914 -0.222666 -0.358049 4.864620 5.215834 3.752793
-3.587143 -4.652886 -7.856154 0.113782 -0.222299 -0.354798 4.869147 5.223581 3.736108
-3.607398 -4.657736 -7.843996 0.113650 -0.221929 -0.351532 4.873694 5.231201 3.719480
-3.627601 -4.662537 -7.831817 0.113518 -0.221558 -0.348253 4.878263 5.238694 3.702908
-3.647752 -4.667291 -7.819616 0.113385 -0.221184 -0.344961 4.882854 5.246061 3.686392
-3.667851 -4.671996 -7.807395 0.113252 -0.220808 -0.341654 4.887468 5.253301 3.669930
-3.687898 -4.676654 -7.795153 0.113119 -0.220430 -0.338334 4.892107 5.260414 3.653522
-3.707893 -4.681264 -7.782891 0.112986 -0.220049 -0.335001 4.896771 5.267402 3.637169
-3.727835 -4.685827 -7.770610 0.112852 -0.219667 -0.331655 4.901462 5.274265 3.620870
-3.747723 -4.690343 -7.758309 0.112719 -0.219282 -0.328295 4.906180 5.281002 3.604624
-3.767559 -4.694811 -7.745989 0.112584 -0.218895 -0.324922 4.910927 5.287614 3.588430
-3.787342 -4.699232 -7.733651 0.112450 -0.218506 -0.321537 4.915703 5.294102 3.572289
-3.807071 -4.703607 -7.721295 0.112315 -0.218115 -0.318139 4.920509 5.300465 3.556200
-3.826746 -4.707934 -7.708921 0.112180 -0.217722 -0.314728 4.925346 5.306705 3.540162
-3.846368 -4.712215 -7.696531 0.112045 -0.217326 -0.311305 4.930216 5.312820 3.524175
-3.865936 -4.716449 -7.684123 0.111909 -0.216928 -0.307870 4.935118 5.318813 3.508239
-3.885449 -4.720637 -7.671699 0.111774 -0.216529 -0.304423 4.940054 5.324682 3.492353
-3.904908 -4.724779 -7.659260 0.111637 -0.216127 -0.300963 4.945025 5.330428 3.476516
-3.924313 -4.728874 -7.646804 0.111501 -0.215723 -0.297492 4.950032 5.336052 3.460728
-3.943662 -4.732924 -7.634334 0.111364 -0.215317 -0.294008 4.955075 5.341553 3.444989
-3.962957 -4.736928 -7.621849 0.111227 -0.214908 -0.290514 4.960155 5.346932 3.429297
-3.982197 -4.740886 -7.609350 0.111090 -0.214498 -0.287008 4.965273 5.352190 3.413653
-4.001381 -4.744799 -7.596837 0.110953 -0.214085 -0.283490 4.970430 5.357326 3.398056
-4.020510 -4.748667 -7.584310 0.110815 -0.213671 -0.279961 4.975626 5.362341 3.382506
-4.039584 -4.752489 -7.571771 0.110677 -0.213254 -0.276421 4.980862 5.367235 3.367002
-4.058601 -4.756266 -7.559219 0.110539 -0.212835 -0.272871 4.986139 5.372008 3.351543
-4.077563 -4.759999 -7.546654 0.110400 -0.212414 -0.269309 4.991458 5.376661 3.336129
-4.096469 -4.763687 -7.534078 0.110261 -0.211991 -0.265737 4.996819 5.381194 3.320760
-4.115318 -4.767330 -7.521491 0.110122 -0.211566 -0.262155 5.002223 5.385607 3.305434
-4.134111 -4.770929 -7.508892 0.109983 -0.211138 -0.258562 5.007671 5.389901 3.290152
-4.152847 -4.774484 -7.496283 0.109843 -0.210709 -0.254959 5.013163 5.394075 3.274913
-4.171526 -4.777995 -7.483664 0.109703 -0.210278 -0.251345 5.018699 5.398129 3.259717
-4.190149 -4.781462 -7.471035 0.109563 -0.209844 -0.247722 5.024282 5.402065 3.244562
-4.208715 -4.784886 -7.458397 0.109423 -0.209409 -0.244089 5.029910 5.405883 3.229449
-4.227223 -4.788266 -7.445750 0.109282 -0.208971 -0.240447 5.035585 5.409581 3.214377
-4.245674 -4.791603 -7.433094 0.109141 -0.208531 -0.236795 5.041306 5.413162 3.199345
-4.264068 -4.794897 -7.420431 0.108999 -0.208090 -0.233133 5.047076 5.416624 3.184353
-4.282403 -4.798148 -7.407759 0.108858 -0.207646 -0.229463 5.052894 5.419969 3.169401
-4.300682 -4.801356 -7.395081 0.108716 -0.207200 -0.225783 5.058760 5.423196 3.154487
-4.318902 -4.804522 -7.382395 0.108574 -0.206752 -0.222094 5.064676 5.426306 3.139612
-4.337064 -4.807646 -7.369703 0.108432 -0.206302 -0.218397 5.070641 5.429298 3.124775
-4.355168 -4.810727 -7.357005 0.108289 -0.205850 -0.214691 5.076656 5.432174 3.109975
-4.373214 -4.813767 -7.344301 0.108146 -0.205396 -0.210977 5.082722 5.434933 3.095212
-4.391201 -4.816765 -7.331591 0.108003 -0.204940 -0.207254 5.088839 5.437575 3.080486
-4.409129 -4.819721 -7.318877 0.107860 -0.204482 -0.203523 5.095007 5.440101 3.065796
-4.426999 -4.822637 -7.306159 0.107716 -0.204022 -0.199784 5.101227 5.442510 3.051141
-4.444810 -4.825511 -7.293436 0.107572 -0.203560 -0.196037 5.107499 5.444804 3.036522
-4.462562 -4.828344 -7.280710 0.107428 -0.203096 -0.192283 5.113824 5.446981 3.021937
-4.480255 -4.831137 -7.267980 0.107283 -0.202630 -0.188520 5.120201 5.449043 3.007386
-4.497889 -4.833889 -7.255247 0.107138 -0.202162 -0.184751 5.126631 5.450990 2.992869
-4.515464 -4.836601 -7.242512 0.106993 -0.201691 -0.180974 5.133115 5.452820 2.978385
-4.532979 -4.839272 -7.229775 0.106848 -0.201219 -0.177190 5.139653 5.454536 2.963934
-4.550434 -4.841905 -7.217036 0.106703 -0.200745 -0.173399 5.146245 5.456136 2.949516
-4.567830 -4.844497 -7.204296 0.106557 -0.200269 -0.169601 5.152891 5.457622 2.935129
-4.585166 -4.847050 -7.191555 0.106411 -0.199791 -0.165796 5.159591 5.458992 2.920774
-4.602442 -4.849564 -7.178813 0.106264 -0.199311 -0.161985 5.166347 5.460248 2.906451
-4.619658 -4.852039 -7.166071 0.106118 -0.198829 -0.158167 5.173157 5.461389 2.892158
-4.636814 -4.854476 -7.153329 0.105971 -0.198345 -0.154344 5.180023 5.462416 2.877895
-4.653910 -4.856874 -7.140588 0.105824 -0.197859 -0.150514 5.186944 5.463328 2.863663
-4.670946 -4.859233 -7.127848 0.105676 -0.197372 -0.146678 5.193920 5.464126 2.849460
-4.687921 -4.861555 -7.115109 0.105529 -0.196882 -0.142836 5.200953 5.464810 2.835287
-4.704836 -4.863839 -7.102372 0.105381 -0.196390 -0.138989 5.208041 5.465379 2.821142
-4.721690 -4.866085 -7.089638 0.105233 -0.195896 -0.135136 5.215185 5.465835 2.807026
-4.738483 -4.868294 -7.076905 0.105084 -0.195401 -0.131278 5.222386 5.466176 2.792938
-4.755216 -4.870466 -7.064176 0.104936 -0.194903 -0.127415 5.229642 5.466404 2.778878
-4.771887 -4.872601 -7.051450 0.104787 -0.194404 -0.123547 5.236956 5.466518 2.764846
-4.788498 -4.874700 -7.038727 0.104638 -0.193902 -0.119673 5.244325 5.466519 2.750841
-4.805048 -4.876762 -7.026009 0.104488 -0.193399 -0.115795 5.251751 5.466405 2.736863
-4.821536 -4.878788 -7.013295 0.104338 -0.192894 -0.111913 5.259234 5.466179 2.722911
-4.837964 -4.880779 -7.000586 0.104188 -0.192387 -0.108026 5.266774 5.465838 2.708987
-4.854330 -4.882733 -6.987882 0.104038 -0.191878 -0.104135 5.274370 5.465384 2.695088
-4.870635 -4.884653 -6.975184 0.103888 -0.191367 -0.100240 5.282022 5.464817 2.681215
-4.886878 -4.886537 -6.962491 0.103737 -0.190854 -0.096340 5.289732 5.464136 2.667368
-4.903059 -4.888386 -6.949805 0.103586 -0.190339 -0.092437 5.297498 5.463342 2.653546
-4.919180 -4.890201 -6.937126 0.103435 -0.189823 -0.088531 5.305321 5.462435 2.639749
-4.935238 -4.891981 -6.924453 0.103283 -0.189305 -0.084621 5.313200 5.461414 2.625978
-4.951235 -4.893727 -6.911788 0.103131 -0.188784 -0.080707 5.321136 5.460280 2.612231
-4.967169 -4.895439 -6.899131 0.102979 -0.188262 -0.076790 5.329128 5.459033 2.598509
-4.983042 -4.897118 -6.886481 0.102827 -0.187738 -0.072871 5.337177 5.457673 2.584811
-4.998853 -4.898763 -6.873840 0.102675 -0.187212 -0.068948 5.345283 5.456199 2.571138
-5.014602 -4.900376 -6.861208 0.102522 -0.186685 -0.065023 5.353444 5.454612 2.557488
-5.030289 -4.901955 -6.848586 0.102369 -0.186155 -0.061095 5.361662 5.452912 2.543863
-5.045914 -4.903502 -6.835972 0.102216 -0.185624 -0.057164 5.369935 5.451098 2.530261
-5.061477 -4.905016 -6.823369 0.102062 -0.185090 -0.053232 5.378265 5.449172 2.516684
-5.076977 -4.906499 -6.810776 0.101908 -0.184555 -0.049297 5.386650 5.447132 2.503130
-5.092415 -4.907950 -6.798194 0.101754 -0.184018 -0.045361 5.395091 5.444978 2.489599
-5.107791 -4.909369 -6.785622 0.101600 -0.183480 -0.041422 5.403587 5.442712 2.476092
-5.123104 -4.910757 -6.773062 0.101445 -0.182939 -0.037482 5.412139 5.440332 2.462609
-5.138355 -4.912114 -6.760514 0.101291 -0.182397 -0.033541 5.420746 5.437839 2.449149
-5.153543 -4.913440 -6.747977 0.101136 -0.181853 -0.029598 5.429407 5.435232 2.435712
-5.168669 -4.914736 -6.735453 0.100980 -0.181307 -0.025654 5.438123 5.432512 2.422298
-5.183732 -4.916002 -6.722942 0.100825 -0.180759 -0.021709 5.446894 5.429678 2.408909
-5.198732 -4.917238 -6.710443 0.100669 -0.180210 -0.017763 5.455719 5.426731 2.395542
-5.213670 -4.918444 -6.697959 0.100513 -0.179659 -0.013816 5.464598 5.423671 2.382199
-5.228545 -4.919621 -6.685487 0.100357 -0.179106 -0.009869 5.473530 5.420496 2.368879
-5.243357 -4.920769 -6.673030 0.100200 -0.178551 -0.005922 5.482516 5.417208 2.355583
-5.258107 -4.921888 -6.660588 0.100043 -0.177994 -0.001974 5.491555 5.413807 2.342310
-5.272794 -4.922979 -6.648160 0.099886 -0.177436 0.001974 5.500647 5.410291 2.329061
-5.287417 -4.924041 -6.635747 0.099729 -0.176876 0.005922 5.509792 5.406662 2.315836
-5.301978 -4.925076 -6.623349 0.099572 -0.176314 0.009869 5.518989 5.402919 2.302635
-5.316476 -4.926083 -6.610968 0.099414 -0.175750 0.013816 5.528238 5.399062 2.289458
-5.330911 -4.927062 -6.598602 0.099256 -0.175185 0.017763 5.537538 5.395091 2.276305
-5.345283 -4.928014 -6.586253 0.099098 -0.174618 0.021709 5.546890 5.391006 2.263176
-5.359592 -4.928940 -6.573920 0.098939 -0.174049 0.025654 5.556293 5.386807 2.250072
-5.373838 -4.929839 -6.561605 0.098780 -0.173479 0.029598 5.565747 5.382493 2.236992
-5.388020 -4.930712 -6.549307 0.098621 -0.172907 0.033541 5.575250 5.378065 2.223937
-5.402140 -4.931558 -6.537026 0.098462 -0.172333 0.037482 5.584804 5.373523 2.210908
-5.416196 -4.932380 -6.524764 0.098303 -0.171757 0.041422 5.594407 5.368866 2.197904
-5.430190 -4.933175 -6.512520 0.098143 -0.171180 0.045361 5.604060 5.364095 2.184925
-5.444120 -4.933946 -6.500295 0.097983 -0.170601 0.049297 5.613761 5.359210 2.171973
-5.457987 -4.934692 -6.488089 0.097823 -0.170021 0.053232 5.623510 5.354209 2.159046
-5.471791 -4.935413 -6.475901 0.097662 -0.169438 0.057164 5.633307 5.349094 2.146146
-5.485532 -4.936110 -6.463734 0.097502 -0.168854 0.061095 5.643152 5.343864 2.133273
-5.499209 -4.936783 -6.451586 0.097341 -0.168269 0.065023 5.653044 5.338519 2.120427
-5.512823 -4.937433 -6.439459 0.097180 -0.167681 0.068948 5.662982 5.333059 2.107608
-5.526374 -4.938059 -6.427352 0.097018 -0.167092 0.072871 5.672967 5.327484 2.094817
-5.539862 -4.938662 -6.415266 0.096856 -0.166502 0.076790 5.682997 5.321794 2.082055
-5.553287 -4.939243 -6.403202 0.096695 -0.165909 0.080707 5.693072 5.315989 2.069321
-5.566648 -4.939801 -6.391158 0.096532 -0.165315 0.084621 5.703192 5.310069 2.056616
-5.579946 -4.940336 -6.379137 0.096370 -0.164720 0.088531 5.713357 5.304033 2.043940
-5.593180 -4.940850 -6.367137 0.096208 -0.164123 0.092437 5.723565 5.297881 2.031295
-5.606352 -4.941342 -6.355160 0.096045 -0.163524 0.096340 5.733816 5.291615 2.018679
-5.619460 -4.941813 -6.343205 0.095882 -0.162924 0.100240 5.744111 5.285232 2.006095
-5.632505 -4.942264 -6.331273 0.095718 -0.162322 0.104135 5.754447 5.278734 1.993541
-5.645486 -4.942693 -6.319365 0.095555 -0.161718 0.108026 5.764825 5.272120 1.981020
-5.658405 -4.943102 -6.307480 0.095391 -0.161113 0.111913 5.775244 5.265391 1.968531
-5.671260 -4.943491 -6.295618 0.095227 -0.160506 0.115795 5.785704 5.258545 1.956074
-5.684052 -4.943860 -6.283781 0.095063 -0.159898 0.119673 5.796204 5.251584 1.943651
-5.696780 -4.944209 -6.271968 0.094898 -0.159288 0.123547 5.806744 5.244507 1.931262
-5.709446 -4.944540 -6.260180 0.094734 -0.158676 0.127415 5.817322 5.237314 1.918908
-5.722048 -4.944851 -6.248417 0.094569 -0.158063 0.131278 5.827939 5.230004 1.906589
-5.734587 -4.945144 -6.236679 0.094403 -0.157448 0.135136 5.838594 5.222579 1.894305
-5.747062 -4.945419 -6.224966 0.094238 -0.156832 0.138989 5.849286 5.215037 1.882058
-5.759475 -4.945675 -6.213280 0.094072 -0.156215 0.142836 5.860014 5.207380 1.869848
-5.771824 -4.945914 -6.201619 0.093906 -0.155595 0.146678 5.870779 5.199606 1.857675
-5.784110 -4.946136 -6.189984 0.093740 -0.154974 0.150514 5.881579 5.191716 1.845541
-5.796334 -4.946340 -6.178377 0.093574 -0.154352 0.154344 5.892414 5.183709 1.833446
-5.808493 -4.946528 -6.166796 0.093407 -0.153728 0.158167 5.903283 5.175586 1.821390
-5.820590 -4.946699 -6.155242 0.093241 -0.153103 0.161985 5.914185 5.167347 1.809375
-5.832624 -4.946854 -6.143715 0.093074 -0.152476 0.165796 5.925121 5.158992 1.797401
-5.844595 -4.946993 -6.132216 0.092906 -0.151847 0.169601 5.936088 5.150520 1.785470
-5.856502 -4.947117 -6.120745 0.092739 -0.151218 0.173399 5.947088 5.141932 1.773580
-5.868347 -4.947225 -6.109302 0.092571 -0.150586 0.177190 5.958118 5.133227 1.761735
-5.880128 -4.947318 -6.097888 0.092403 -0.149953 0.180974 5.969179 5.124406 1.749933
-5.891847 -4.947397 -6.086502 0.092235 -0.149319 0.184751 5.980269 5.115469 1.738177
-5.903502 -4.947461 -6.075145 0.092067 -0.148683 0.188520 5.991388 5.106416 1.726466
-5.915095 -4.947511 -6.063818 0.091898 -0.148046 0.192283 6.002536 5.097246 1.714802
-5.926625 -4.947548 -6.052519 0.091729 -0.147407 0.196037 6.013711 5.087960 1.703186
-5.938092 -4.947571 -6.041251 0.091560 -0.146767 0.199784 6.024913 5.078558 1.691618
-5.949496 -4.947581 -6.030012 0.091391 -0.146125 0.203523 6.036141 5.069040 1.680099
-5.960837 -4.947578 -6.018804 0.091221 -0.145482 0.207254 6.047395 5.059406 1.668631
-5.972115 -4.947562 -6.007626 0.091051 -0.144837 0.210977 6.058673 5.049656 1.657214
-5.983331 -4.947535 -5.996478 0.090881 -0.144191 0.214691 6.069976 5.039789 1.645848
-5.994484 -4.947495 -5.985362 0.090711 -0.143544 0.218397 6.081302 5.029807 1.634536
-6.005574 -4.947444 -5.974276 0.090541 -0.142895 0.222094 6.092650 5.019710 1.623277
-6.016602 -4.947381 -5.963222 0.090370 -0.142245 0.225783 6.104021 5.009496 1.612073
-6.027567 -4.947307 -5.952200 0.090199 -0.141593 0.229463 6.115412 4.999167 1.600925
-6.038470 -4.947223 -5.941209 0.090028 -0.140940 0.233133 6.126824 4.988723 1.589834
-6.049310 -4.947128 -5.930251 0.089857 -0.140286 0.236795 6.138256 4.978163 1.578800
-6.060087 -4.947023 -5.919325 0.089685 -0.139630 0.240447 6.149706 4.967488 1.567825
-6.070802 -4.946909 -5.908431 0.089513 -0.138973 0.244089 6.161174 4.956699 1.556910
-6.081455 -4.946784 -5.897570 0.089341 -0.138314 0.247722 6.172660 4.945794 1.546055
-6.092045 -4.946651 -5.886742 0.089169 -0.137654 0.251345 6.184163 4.934775 1.535263
-6.102573 -4.946509 -5.875947 0.088997 -0.136993 0.254959 6.195681 4.923641 1.524533
-6.113038 -4.946358 -5.865186 0.088824 -0.136330 0.258562 6.207214 4.912393 1.513867
-6.123442 -4.946199 -5.854458 0.088651 -0.135666 0.262155 6.218761 4.901031 1.503266
-6.133783 -4.946032 -5.843764 0.088478 -0.135001 0.265737 6.230322 4.889555 1.492731
-6.144062 -4.945857 -5.833104 0.088305 -0.134334 0.269309 6.241895 4.877965 1.482263
-6.154279 -4.945674 -5.822479 0.088131 -0.133666 0.272871 6.253480 4.866262 1.471863
-6.164434 -4.945485 -5.811887 0.087958 -0.132997 0.276421 6.265076 4.854446 1.461533
-6.174526 -4.945289 -5.801331 0.087784 -0.132327 0.279961 6.276682 4.842516 1.451273
-6.184557 -4.945086 -5.790809 0.087610 -0.131655 0.283490 6.288298 4.830474 1.441085
-6.194526 -4.944878 -5.780323 0.087435 -0.130981 0.287008 6.299922 4.818320 1.430970
-6.204433 -4.944663 -5.769872 0.087261 -0.130307 0.290514 6.311554 4.806054 1.420928
-6.214278 -4.944443 -5.759456 0.087086 -0.129631 0.294008 6.323192 4.793676 1.410961
-6.224061 -4.944217 -5.749076 0.086911 -0.128954 0.297492 6.334837 4.781187 1.401071
-6.233783 -4.943986 -5.738732 0.086735 -0.128276 0.300963 6.346486 4.768586 1.391258
-6.243443 -4.943751 -5.728424 0.086560 -0.127596 0.304423 6.358140 4.755875 1.381523
-6.253041 -4.943512 -5.718152 0.086384 -0.126915 0.307870 6.369798 4.743053 1.371868
-6.262578 -4.943268 -5.707917 0.086208 -0.126233 0.311305 6.381458 4.730122 1.362295
-6.272053 -4.943020 -5.697719 0.086032 -0.125550 0.314728 6.393119 4.717081 1.352803
-6.281467 -4.942769 -5.687557 0.085856 -0.124865 0.318139 6.404782 4.703931 1.343394
-6.290819 -4.942515 -5.677432 0.085679 -0.124179 0.321537 6.416444 4.690671 1.334070
-6.300110 -4.942258 -5.667345 0.085503 -0.123492 0.324922 6.428106 4.677304 1.324832
-6.309340 -4.941998 -5.657295 0.085326 -0.122804 0.328295 6.439766 4.663829 1.315681
-6.318508 -4.941736 -5.647283 0.085149 -0.122114 0.331655 6.451423 4.650246 1.306618
-6.327615 -4.941472 -5.637308 0.084971 -0.121424 0.335001 6.463077 4.636557 1.297645
-6.336661 -4.941206 -5.627371 0.084794 -0.120732 0.338334 6.474726 4.622761 1.288762
-6.345646 -4.940939 -5.617473 0.084616 -0.120039 0.341654 6.486370 4.608859 1.279971
-6.354570 -4.940670 -5.607612 0.084438 -0.119344 0.344961 6.498007 4.594852 1.271273
-6.363433 -4.940401 -5.597790 0.084260 -0.118649 0.348253 6.509638 4.580740 1.262670
-6.372235 -4.940131 -5.588007 0.084081 -0.117952 0.351532 6.521260 4.566524 1.254163
-6.380976 -4.939861 -5.578263 0.083903 -0.117254 0.354798 6.532874 4.552204 1.245752
-6.389657 -4.939591 -5.568557 0.083724 -0.116556 0.358049 6.544477 4.537781 1.237440
-6.398276 -4.939321 -5.558891 0.083545 -0.115855 0.361286 6.556070 4.523256 1.229227
-6.406835 -4.939051 -5.549264 0.083365 -0.115154 0.364509 6.567651 4.508629 1.221115
-6.415334 -4.938783 -5.539677 0.083186 -0.114452 0.367717 6.579220 4.493900 1.213105
-6.423771 -4.938516 -5.530129 0.083006 -0.113748 0.370911 6.590775 4.479071 1.205199
-6.432149 -4.938250 -5.520621 0.082826 -0.113044 0.374090 6.602316 4.464143 1.197397
-6.440465 -4.937986 -5.511152 0.082646 -0.112338 0.377255 6.613841 4.449115 1.189701
-6.448722 -4.937724 -5.501724 0.082466 -0.111631 0.380404 6.625350 4.433988 1.182112
-6.456918 -4.937464 -5.492336 0.082286 -0.110923 0.383539 6.636841 4.418764 1.174631
-6.465054 -4.937207 -5.482989 0.082105 -0.110214 0.386658 6.648315 4.403444 1.167260
-6.473129 -4.936953 -5.473682 0.081924 -0.109504 0.389762 6.659769 4.388026 1.160001
-6.481145 -4.936701 -5.464416 0.081743 -0.108793 0.392851 6.671203 4.372514 1.152853
-6.489100 -4.936454 -5.455190 0.081562 -0.108080 0.395924 6.682616 4.356907 1.145819
-6.496996 -4.936210 -5.446006 0.081380 -0.107367 0.398982 6.694007 4.341206 1.138900
-6.504831 -4.935970 -5.436862 0.081199 -0.106653 0.402024 6.705376 4.325412 1.132097
-6.512607 -4.935734 -5.427760 0.081017 -0.105937 0.405050 6.716720 4.309527 1.125412
-6.520323 -4.935503 -5.418700 0.080835 -0.105221 0.408060 6.728040 4.293550 1.118845
-6.527979 -4.935276 -5.409681 0.080652 -0.104503 0.411053 6.739333 4.277482 1.112398
-6.535575 -4.935055 -5.400703 0.080470 -0.103784 0.414031 6.750600 4.261326 1.106072
-6.543111 -4.934839 -5.391767 0.080287 -0.103065 0.416992 6.761840 4.245081 1.099869
-6.550589 -4.934629 -5.382874 0.080104 -0.102344 0.419937 6.773051 4.228748 1.093789
-6.558006 -4.934424 -5.374022 0.079921 -0.101623 0.422866 6.784232 4.212329 1.087835
-6.565364 -4.934226 -5.365212 0.079738 -0.100900 0.425777 6.795382 4.195824 1.082006
-6.572663 -4.934035 -5.356445 0.079554 -0.100176 0.428672 6.806501 4.179235 1.076305
-6.579902 -4.933850 -5.347720 0.079371 -0.099452 0.431550 6.817588 4.162563 1.070733
-6.587083 -4.933672 -5.339038 0.079187 -0.098726 0.434411 6.828641 4.145807 1.065290
-6.594203 -4.933501 -5.330399 0.079003 -0.097999 0.437254 6.839660 4.128971 1.059979
-6.601265 -4.933338 -5.321802 0.078819 -0.097272 0.440081 6.850643 4.112054 1.054800
-6.608268 -4.933182 -5.313248 0.078634 -0.096543 0.442890 6.861590 4.095058 1.049755
-6.615212 -4.933035 -5.304737 0.078450 -0.095814 0.445681 6.872499 4.077984 1.044844
-6.622097 -4.932896 -5.296270 0.078265 -0.095084 0.448455 6.883371 4.060833 1.040069
-6.628923 -4.932766 -5.287845 0.078080 -0.094352 0.451211 6.894203 4.043606 1.035432
-6.635690 -4.932644 -5.279464 0.077894 -0.093620 0.453950 6.904995 4.026304 1.030933
-6.642398 -4.932532 -5.271127 0.077709 -0.092887 0.456670 6.915746 4.008929 1.026573
-6.649048 -4.932429 -5.262833 0.077523 -0.092153 0.459373 6.926454 3.991481 1.022354
-6.655639 -4.932335 -5.254583 0.077338 -0.091418 0.462057 6.937120 3.973963 1.018276
-6.662172 -4.932252 -5.246376 0.077152 -0.090682 0.464723 6.947741 3.956375 1.014342
-6.668646 -4.932178 -5.238214 0.076965 -0.089945 0.467371 6.958318 3.938718 1.010552
-6.675061 -4.932115 -5.230095 0.076779 -0.089207 0.470000 6.968848 3.920994 1.006906
-6.681418 -4.932063 -5.222021 0.076593 -0.088468 0.472611 6.979331 3.903205 1.003408
-6.687717 -4.932022 -5.213991 0.076406 -0.087729 0.475203 6.989767 3.885350 1.000056
-6.693958 -4.931991 -5.206005 0.076219 -0.086989 0.477776 7.000154 3.867432 0.996853
-6.700141 -4.931972 -5.198063 0.076032 -0.086247 0.480331 7.010490 3.849453 0.993800
-6.706265 -4.931965 -5.190166 0.075844 -0.085505 0.482866 7.020776 3.831412 0.990897
-6.712332 -4.931970 -5.182314 0.075657 -0.084763 0.485383 7.031011 3.813313 0.988145
-6.718340 -4.931987 -5.174506 0.075469 -0.084019 0.487880 7.041192 3.795156 0.985547
-6.724290 -4.932016 -5.166743 0.075281 -0.083274 0.490358 7.051320 3.776942 0.983102
-6.730183 -4.932058 -5.159025 0.075093 -0.082529 0.492817 7.061394 3.758674 0.980811
-6.736018 -4.932113 -5.151352 0.074905 -0.081783 0.495256 7.071411 3.740352 0.978677
-6.741795 -4.932181 -5.143724 0.074717 -0.081036 0.497676 7.081372 3.721978 0.976699
-6.747514 -4.932262 -5.136140 0.074528 -0.080288 0.500076 7.091276 3.703554 0.974878
-6.753176 -4.932357 -5.128603 0.074339 -0.079539 0.502456 7.101122 3.685081 0.973216
-6.758780 -4.932466 -5.121110 0.074150 -0.078790 0.504816 7.110908 3.666560 0.971714
-6.764327 -4.932589 -5.113663 0.073961 -0.078040 0.507157 7.120634 3.647994 0.970372
-6.769816 -4.932726 -5.106261 0.073772 -0.077289 0.509477 7.130298 3.629383 0.969191
-6.775248 -4.932878 -5.098904 0.073582 -0.076537 0.511778 7.139901 3.610729 0.968172
-6.780623 -4.933045 -5.091593 0.073393 -0.075785 0.514058 7.149440 3.592034 0.967316
-6.785940 -4.933227 -5.084328 0.073203 -0.075032 0.516318 7.158916 3.573299 0.966624
-6.791200 -4.933424 -5.077108 0.073013 -0.074278 0.518557 7.168326 3.554527 0.966097
-6.796403 -4.933636 -5.069935 0.072822 -0.073523 0.520776 7.177671 3.535718 0.965734
-6.801549 -4.933864 -5.062807 0.072632 -0.072768 0.522975 7.186949 3.516874 0.965539
-6.806638 -4.934108 -5.055725 0.072441 -0.072011 0.525152 7.196159 3.497997 0.965510
-6.811670 -4.934368 -5.048689 0.072251 -0.071255 0.527309 7.205301 3.479089 0.965649
-6.816645 -4.934645 -5.041699 0.072060 -0.070497 0.529446 7.214373 3.460151 0.965956
-6.821564 -4.934938 -5.034755 0.071868 -0.069739 0.531561 7.223375 3.441185 0.966432
-6.826425 -4.935248 -5.027857 0.071677 -0.068980 0.533655 7.232306 3.422193 0.967078
-6.831230 -4.935575 -5.021005 0.071486 -0.068220 0.535729 7.241165 3.403177 0.967895
-6.835978 -4.935920 -5.014200 0.071294 -0.067460 0.537781 7.249951 3.384137 0.968882
-6.840669 -4.936282 -5.007441 0.071102 -0.066699 0.539812 7.258662 3.365077 0.970041
-6.845304 -4.936661 -5.000728 0.070910 -0.065938 0.541821 7.267299 3.345997 0.971373
-6.849883 -4.937059 -4.994062 0.070718 -0.065175 0.543810 7.275861 3.326899 0.972877
-6.854404 -4.937475 -4.987442 0.070526 -0.064413 0.545776 7.284346 3.307786 0.974555
-6.858870 -4.937909 -4.980869 0.070333 -0.063649 0.547722 7.292753 3.288659 0.976407
-6.863279 -4.938361 -4.974343 0.070140 -0.062885 0.549645 7.301083 3.269520 0.978433
-6.867632 -4.938833 -4.967863 0.069947 -0.062120 0.551547 7.309333 3.250370 0.980634
-6.871929 -4.939323 -4.961429 0.069754 -0.061355 0.553427 7.317504 3.231212 0.983010
-6.876169 -4.939833 -4.955043 0.069561 -0.060589 0.555285 7.325593 3.212047 0.985562
-6.880354 -4.940362 -4.948703 0.069368 -0.059822 0.557122 7.333602 3.192878 0.988290
-6.884482 -4.940910 -4.942410 0.069174 -0.059055 0.558936 7.341527 3.173705 0.991195
-6.888554 -4.941478 -4.936164 0.068980 -0.058287 0.560728 7.349370 3.154532 0.994277
-6.892571 -4.942067 -4.929964 0.068786 -0.057519 0.562499 7.357129 3.135359 0.997536
-6.896531 -4.942675 -4.923812 0.068592 -0.056750 0.564246 7.364803 3.116189 1.000973
-6.900435 -4.943304 -4.917707 0.068398 -0.055981 0.565972 7.372391 3.097023 1.004587
-6.904284 -4.943953 -4.911648 0.068204 -0.055211 0.567675 7.379893 3.077864 1.008379
-6.908077 -4.944624 -4.905637 0.068009 -0.054440 0.569356 7.387308 3.058713 1.012350
-6.911814 -4.945315 -4.899672 0.067814 -0.053669 0.571015 7.394635 3.039573 1.016499
-6.915496 -4.946027 -4.893755 0.067619 -0.052897 0.572651 7.401873 3.020444 1.020827
-6.919122 -4.946761 -4.887885 0.067424 -0.052125 0.574264 7.409022 3.001330 1.025334
-6.922692 -4.947516 -4.882062 0.067229 -0.051353 0.575855 7.416081 2.982232 1.030020
-6.926207 -4.948293 -4.876286 0.067033 -0.050579 0.577422 7.423048 2.963151 1.034885
-6.929666 -4.949091 -4.870557 0.066838 -0.049806 0.578967 7.429924 2.944091 1.039929
-6.933070 -4.949912 -4.864876 0.066642 -0.049032 0.580490 7.436708 2.925052 1.045152
-6.936418 -4.950756 -4.859241 0.066446 -0.048257 0.581989 7.443399 2.906037 1.050554
-6.939711 -4.951621 -4.853654 0.066250 -0.047482 0.583465 7.449995 2.887048 1.056136
-6.942949 -4.952509 -4.848115 0.066054 -0.046706 0.584919 7.456498 2.868086 1.061896
-6.946131 -4.953420 -4.842622 0.065857 -0.045930 0.586349 7.462905 2.849154 1.067836
-6.949258 -4.954354 -4.837177 0.065661 -0.045154 0.587756 7.469216 2.830254 1.073955
-6.952330 -4.955311 -4.831779 0.065464 -0.044377 0.589140 7.475430 2.811387 1.080252
-6.955347 -4.956292 -4.826429 0.065267 -0.043599 0.590500 7.481548 2.792556 1.086728
-6.958309 -4.957296 -4.821126 0.065070 -0.042822 0.591838 7.487567 2.773762 1.093383
-6.961216 -4.958323 -4.815870 0.064873 -0.042043 0.593151 7.493488 2.755007 1.100216
-6.964067 -4.959375 -4.810662 0.064676 -0.041265 0.594442 7.499310 2.736293 1.107228
-6.966864 -4.960450 -4.805501 0.064478 -0.040486 0.595709 7.505032 2.717623 1.114417
-6.969606 -4.961549 -4.800388 0.064280 -0.039706 0.596953 7.510653 2.698998 1.121783
-6.972293 -4.962673 -4.795322 0.064082 -0.038926 0.598172 7.516174 2.680420 1.129327
-6.974925 -4.963822 -4.790303 0.063884 -0.038146 0.599369 7.521593 2.661892 1.137048
-6.977502 -4.964994 -4.785332 0.063686 -0.037365 0.600541 7.526909 2.643414 1.144945
-6.980024 -4.966192 -4.780408 0.063488 -0.036584 0.601690 7.532123 2.624989 1.153018
-6.982492 -4.967415 -4.775532 0.063289 -0.035803 0.602816 7.537234 2.606620 1.161267
-6.984904 -4.968662 -4.770703 0.063091 -0.035021 0.603917 7.542240 2.588307 1.169691
-6.987262 -4.969935 -4.765921 0.062892 -0.034239 0.604995 7.547143 2.570053 1.178290
-6.989566 -4.971234 -4.761187 0.062693 -0.033457 0.606048 7.551940 2.551859 1.187063
-6.991815 -4.972558 -4.756501 0.062494 -0.032674 0.607078 7.556632 2.533728 1.196010
-6.994009 -4.973907 -4.751862 0.062295 -0.031891 0.608084 7.561217 2.515662 1.205130
-6.996148 -4.975283 -4.747270 0.062095 -0.031108 0.609066 7.565696 2.497662 1.214423
-6.998233 -4.976684 -4.742726 0.061896 -0.030324 0.610023 7.570068 2.479731 1.223887
-7.000264 -4.978111 -4.738229 0.061696 -0.029540 0.610957 7.574333 2.461869 1.233522
-7.002240 -4.979565 -4.733780 0.061496 -0.028756 0.611867 7.578490 2.444080 1.243328
-7.004161 -4.981045 -4.729378 0.061296 -0.027972 0.612752 7.582538 2.426365 1.253304
-7.006028 -4.982552 -4.725023 0.061096 -0.027187 0.613613 7.586477 2.408725 1.263449
-7.007841 -4.984085 -4.720716 0.060895 -0.026402 0.614450 7.590307 2.391163 1.273762
-7.009599 -4.985645 -4.716456 0.060695 -0.025616 0.615263 7.594028 2.373681 1.284243
-7.011303 -4.987232 -4.712244 0.060494 -0.024831 0.616051 7.597638 2.356280 1.294891
-7.012953 -4.988846 -4.708079 0.060294 -0.024045 0.616815 7.601138 2.338962 1.305704
-7.014548 -4.990487 -4.703961 0.060093 -0.023259 0.617555 7.604526 2.321730 1.316682
-7.016089 -4.992156 -4.699891 0.059892 -0.022473 0.618270 7.607804 2.304584 1.327825
-7.017576 -4.993852 -4.695868 0.059690 -0.021686 0.618961 7.610969 2.287526 1.339130
-7.019008 -4.995575 -4.691892 0.059489 -0.020899 0.619628 7.614023 2.270559 1.350598
-7.020387 -4.997326 -4.687963 0.059287 -0.020112 0.620270 7.616964 2.253684 1.362227
-7.021711 -4.999105 -4.684082 0.059086 -0.019325 0.620888 7.619793 2.236903 1.374016
-7.022981 -5.000912 -4.680248 0.058884 -0.018538 0.621481 7.622509 2.220217 1.385965
-7.024196 -5.002747 -4.676461 0.058682 -0.017750 0.622049 7.625111 2.203629 1.398071
-7.025358 -5.004610 -4.672722 0.058480 -0.016963 0.622593 7.627600 2.187140 1.410335
-7.026465 -5.006501 -4.669029 0.058278 -0.016175 0.623113 7.629974 2.170751 1.422755
-7.027518 -5.008421 -4.665384 0.058075 -0.015387 0.623607 7.632235 2.154465 1.435329
-7.028518 -5.010369 -4.661786 0.057873 -0.014599 0.624078 7.634381 2.138283 1.448057
-7.029463 -5.012345 -4.658235 0.057670 -0.013810 0.624523 7.636413 2.122206 1.460937
-7.030354 -5.014351 -4.654731 0.057467 -0.013022 0.624944 7.638330 2.106237 1.473969
-7.031191 -5.016384 -4.651274 0.057264 -0.012233 0.625340 7.640131 2.090377 1.487151
-7.031973 -5.018447 -4.647864 0.057061 -0.011445 0.625712 7.641818 2.074627 1.500481
-7.032702 -5.020539 -4.644501 0.056858 -0.010656 0.626058 7.643389 2.058990 1.513959
-7.033377 -5.022660 -4.641184 0.056655 -0.009867 0.626381 7.644844 2.043466 1.527584
-7.033998 -5.024810 -4.637915 0.056451 -0.009078 0.626678 7.646183 2.028057 1.541353
-7.034565 -5.026989 -4.634693 0.056247 -0.008289 0.626951 7.647407 2.012764 1.555265
-7.035077 -5.029198 -4.631518 0.056044 -0.007500 0.627199 7.648514 1.997590 1.569320
-7.035536 -5.031436 -4.628389 0.055840 -0.006711 0.627422 7.649505 1.982536 1.583516
-7.035941 -5.033703 -4.625307 0.055636 -0.005921 0.627620 7.650380 1.967603 1.597851
-7.036292 -5.036000 -4.622272 0.055431 -0.005132 0.627794 7.651138 1.952792 1.612324
-7.036589 -5.038327 -4.619284 0.055227 -0.004342 0.627942 7.651780 1.938105 1.626933
-7.036832 -5.040684 -4.616342 0.055022 -0.003553 0.628066 7.652305 1.923543 1.641677
-7.037020 -5.043070 -4.613447 0.054818 -0.002763 0.628166 7.652714 1.909109 1.656555
-7.037155 -5.045486 -4.610598 0.054613 -0.001974 0.628240 7.653006 1.894802 1.671565
-7.037236 -5.047932 -4.607796 0.054408 -0.001184 0.628290 7.653181 1.880624 1.686705
-7.037263 -5.050409 -4.605041 0.054203 -0.000395 0.628314 7.653239 1.866578 1.701974
-7.037236 -5.052915 -4.602331 0.053998 0.000395 0.628314 7.653181 1.852663 1.717371
-7.037155 -5.055452 -4.599669 0.053793 0.001184 0.628290 7.653006 1.838881 1.732893
-7.037020 -5.058019 -4.597052 0.053587 0.001974 0.628240 7.652714 1.825234 1.748539
-7.036832 -5.060616 -4.594482 0.053382 0.002763 0.628166 7.652305 1.811723 1.764308
-7.036589 -5.063243 -4.591959 0.053176 0.003553 0.628066 7.651780 1.798348 1.780198
-7.036292 -5.065902 -4.589481 0.052970 0.004342 0.627942 7.651138 1.785111 1.796207
-7.035941 -5.068590 -4.587050 0.052764 0.005132 0.627794 7.650380 1.772014 1.812334
-7.035536 -5.071309 -4.584665 0.052558 0.005921 0.627620 7.649505 1.759057 1.828576
-7.035077 -5.074059 -4.582326 0.052352 0.006711 0.627422 7.648514 1.746241 1.844933
-7.034565 -5.076840 -4.580032 0.052146 0.007500 0.627199 7.647407 1.733567 1.861402
-7.033998 -5.079651 -4.577785 0.051939 0.008289 0.626951 7.646183 1.721037 1.877981
-7.033377 -5.082493 -4.575584 0.051733 0.009078 0.626678 7.644844 1.708652 1.894670
-7.032702 -5.085366 -4.573429 0.051526 0.009867 0.626381 7.643389 1.696411 1.911466
-7.031973 -5.088270 -4.571319 0.051319 0.010656 0.626058 7.641818 1.684317 1.928367
-7.031191 -5.091205 -4.569255 0.051112 0.011445 0.625712 7.640131 1.672371 1.945371
-7.030354 -5.094170 -4.567237 0.050905 0.012233 0.625340 7.638330 1.660572 1.962478
-7.029463 -5.097167 -4.565265 0.050698 0.013022 0.624944 7.636413 1.648923 1.979685
-7.028518 -5.100195 -4.563338 0.050490 0.013810 0.624523 7.634381 1.637424 1.996989
-7.027518 -5.103254 -4.561457 0.050283 0.014599 0.624078 7.632235 1.626075 2.014390
-7.026465 -5.106344 -4.559621 0.050075 0.015387 0.623607 7.629974 1.614878 2.031886
-7.025358 -5.109465 -4.557830 0.049867 0.016175 0.623113 7.627600 1.603833 2.049474
-7.024196 -5.112617 -4.556085 0.049660 0.016963 0.622593 7.625111 1.592941 2.067153
-7.022981 -5.115801 -4.554385 0.049452 0.017750 0.622049 7.622509 1.582203 2.084921
-7.021711 -5.119016 -4.552731 0.049244 0.018538 0.621481 7.619793 1.571620 2.102776
-7.020387 -5.122262 -4.551121 0.049035 0.019325 0.620888 7.616964 1.561191 2.120716
-7.019008 -5.125539 -4.549557 0.048827 0.020112 0.620270 7.614023 1.550918 2.138739
-7.017576 -5.128848 -4.548038 0.048618 0.020899 0.619628 7.610969 1.540802 2.156844
-7.016089 -5.132188 -4.546563 0.048410 0.021686 0.618961 7.607804 1.530842 2.175028
-7.014548 -5.135560 -4.545134 0.048201 0.022473 0.618270 7.604526 1.521040 2.193289
-7.012953 -5.138963 -4.543749 0.047992 0.023259 0.617555 7.601138 1.511396 2.211626
-7.011303 -5.142397 -4.542409 0.047783 0.024045 0.616815 7.597638 1.501910 2.230037
-7.009599 -5.145862 -4.541114 0.047574 0.024831 0.616051 7.594028 1.492583 2.248519
-7.007841 -5.149360 -4.539863 0.047365 0.025616 0.615263 7.590307 1.483415 2.267071
-7.006028 -5.152888 -4.538658 0.047156 0.026402 0.614450 7.586477 1.474407 2.285691
-7.004161 -5.156448 -4.537496 0.046947 0.027187 0.613613 7.582538 1.465559 2.304377
-7.002240 -5.160039 -4.536379 0.046737 0.027972 0.612752 7.578490 1.456872 2.323127
-7.000264 -5.163662 -4.535306 0.046527 0.028756 0.611867 7.574333 1.448345 2.341938
-6.998233 -5.167316 -4.534278 0.046318 0.029540 0.610957 7.570068 1.439979 2.360810
-6.996148 -5.171002 -4.533294 0.046108 0.030324 0.610023 7.565696 1.431775 2.379739
-6.994009 -5.174719 -4.532353 0.045898 0.031108 0.609066 7.561217 1.423732 2.398725
-6.991815 -5.178467 -4.531457 0.045688 0.031891 0.608084 7.556632 1.415850 2.417765
-6.989566 -5.182247 -4.530605 0.045477 0.032674 0.607078 7.551940 1.408131 2.436857
-6.987262 -5.186059 -4.529797 0.045267 0.033457 0.606048 7.547143 1.400574 2.455999
-6.984904 -5.189901 -4.529033 0.045057 0.034239 0.604995 7.542240 1.393178 2.475190
-6.982492 -5.193775 -4.528312 0.044846 0.035021 0.603917 7.537234 1.385945 2.494427
-6.980024 -5.197681 -4.527635 0.044636 0.035803 0.602816 7.532123 1.378874 2.513708
-6.977502 -5.201618 -4.527002 0.044425 0.036584 0.601690 7.526909 1.371966 2.533031
-6.974925 -5.205586 -4.526412 0.044214 0.037365 0.600541 7.521593 1.365220 2.552395
-6.972293 -5.209585 -4.525865 0.044003 0.038146 0.599369 7.516174 1.358636 2.571798
-6.969606 -5.213616 -4.525362 0.043792 0.038926 0.598172 7.510653 1.352214 2.591237
-6.966864 -5.217678 -4.524902 0.043581 0.039706 0.596953 7.505032 1.345954 2.610710
-6.964067 -5.221771 -4.524486 0.043369 0.040486 0.595709 7.499310 1.339857 2.630216
-6.961216 -5.225895 -4.524112 0.043158 0.041265 0.594442 7.493488 1.333921 2.649754
-6.958309 -5.230051 -4.523782 0.042946 0.042043 0.593151 7.487567 1.328147 2.669319
-6.955347 -5.234238 -4.523494 0.042735 0.042822 0.591838 7.481548 1.322534 2.688912
-6.952330 -5.238455 -4.523250 0.042523 0.043599 0.590500 7.475430 1.317083 2.708530
-6.949258 -5.242704 -4.523048 0.042311 0.044377 0.589140 7.469216 1.311793 2.728171
-6.946131 -5.246984 -4.522888 0.042099 0.045154 0.587756 7.462905 1.306664 2.747833
-6.942949 -5.251295 -4.522772 0.041887 0.045930 0.586349 7.456498 1.301695 2.767514
-6.939711 -5.255637 -4.522697 0.041675 0.046706 0.584919 7.449995 1.296887 2.787212
-6.936418 -5.260010 -4.522666 0.041463 0.047482 0.583465 7.443399 1.292238 2.806927
-6.933070 -5.264413 -4.522676 0.041250 0.048257 0.581989 7.436708 1.287749 2.826654
-6.929666 -5.268848 -4.522729 0.041038 0.049032 0.580490 7.429924 1.283419 2.846394
-6.926207 -5.273313 -4.522824 0.040825 0.049806 0.578967 7.423048 1.279247 2.866143
-6.922692 -5.277808 -4.522961 0.040613 0.050579 0.577422 7.416081 1.275234 2.885901
-6.919122 -5.282335 -4.523140 0.040400 0.051353 0.575855 7.409022 1.271378 2.905665
-6.915496 -5.286892 -4.523361 0.040187 0.052125 0.574264 7.401873 1.267680 2.925433
-6.911814 -5.291479 -4.523624 0.039974 0.052897 0.572651 7.394635 1.264138 2.945204
-6.908077 -5.296097 -4.523928 0.039761 0.053669 0.571015 7.387308 1.260753 2.964976
-6.904284 -5.300746 -4.524274 0.039548 0.054440 0.569356 7.379893 1.257523 2.984747
-6.900435 -5.305425 -4.524661 0.039335 0.055211 0.567675 7.372391 1.254448 3.004515
-6.896531 -5.310134 -4.525090 0.039121 0.055981 0.565972 7.364803 1.251528 3.024278
-6.892571 -5.314873 -4.525560 0.038908 0.056750 0.564246 7.357129 1.248761 3.044035
-6.888554 -5.319642 -4.526072 0.038694 0.057519 0.562499 7.349370 1.246147 3.063785
-6.884482 -5.324442 -4.526624 0.038481 0.058287 0.560728 7.341527 1.243686 3.083524
-6.880354 -5.329271 -4.527218 0.038267 0.059055 0.558936 7.333602 1.241376 3.103252
-6.876169 -5.334130 -4.527852 0.038053 0.059822 0.557122 7.325593 1.239217 3.122967
-6.871929 -5.339020 -4.528528 0.037839 0.060589 0.555285 7.317504 1.237209 3.142667
-6.867632 -5.343939 -4.529244 0.037625 0.061355 0.553427 7.309333 1.235350 3.162351
-6.863279 -5.348887 -4.530001 0.037411 0.062120 0.551547 7.301083 1.233639 3.182016
-6.858870 -5.353865 -4.530798 0.037197 0.062885 0.549645 7.292753 1.232077 3.201661
-6.854404 -5.358873 -4.531635 0.036983 0.063649 0.547722 7.284346 1.230661 3.221286
-6.849883 -5.363910 -4.532513 0.036768 0.064413 0.545776 7.275861 1.229392 3.240887
-6.845304 -5.368976 -4.533432 0.036554 0.065175 0.543810 7.267299 1.228267 3.260463
-6.840669 -5.374072 -4.534390 0.036339 0.065938 0.541821 7.258662 1.227288 3.280013
-6.835978 -5.379197 -4.535389 0.036125 0.066699 0.539812 7.249951 1.226451 3.299535
-6.831230 -5.384351 -4.536427 0.035910 0.067460 0.537781 7.241165 1.225758 3.319028
-6.826425 -5.389533 -4.537505 0.035695 0.068220 0.535729 7.232306 1.225206 3.338490
-6.821564 -5.394745 -4.538623 0.035480 0.068980 0.533655 7.223375 1.224794 3.357920
-6.816645 -5.399985 -4.539780 0.035265 0.069739 0.531561 7.214373 1.224523 3.377316
-6.811670 -5.405254 -4.540977 0.035050 0.070497 0.529446 7.205301 1.224390 3.396676
-6.806638 -5.410552 -4.542214 0.034835 0.071255 0.527309 7.196159 1.224394 3.415999
-6.801549 -5.415878 -4.543489 0.034620 0.072011 0.525152 7.186949 1.224535 3.435285
-6.796403 -5.421232 -4.544804 0.034404 0.072768 0.522975 7.177671 1.224812 3.454530
-6.791200 -5.426614 -4.546158 0.034189 0.073523 0.520776 7.168326 1.225224 3.473734
-6.785940 -5.432025 -4.547551 0.033973 0.074278 0.518557 7.158916 1.225769 3.492896
-6.780623 -5.437463 -4.548983 0.033758 0.075032 0.516318 7.149440 1.226446 3.512013
-6.775248 -5.442930 -4.550454 0.033542 0.075785 0.514058 7.139901 1.227254 3.531086
-6.769816 -5.448424 -4.551963 0.033326 0.076537 0.511778 7.130298 1.228193 3.550111
-6.764327 -5.453946 -4.553511 0.033111 0.077289 0.509477 7.120634 1.229261 3.569089
-6.758780 -5.459495 -4.555097 0.032895 0.078040 0.507157 7.110908 1.230457 3.588017
-6.753176 -5.465071 -4.556721 0.032679 0.078790 0.504816 7.101122 1.231779 3.606895
-6.747514 -5.470675 -4.558384 0.032462 0.079539 0.502456 7.091276 1.233227 3.625721
-6.741795 -5.476306 -4.560085 0.032246 0.080288 0.500076 7.081372 1.234799 3.644494
-6.736018 -5.481964 -4.561824 0.032030 0.081036 0.497676 7.071411 1.236495 3.663212
-6.730183 -5.487649 -4.563600 0.031814 0.081783 0.495256 7.061394 1.238312 3.681875
-6.724290 -5.493360 -4.565415 0.031597 0.082529 0.492817 7.051320 1.240251 3.700481
-6.718340 -5.499099 -4.567267 0.031381 0.083274 0.490358 7.041192 1.242309 3.719029
-6.712332 -5.504863 -4.569156 0.031164 0.084019 0.487880 7.031011 1.244485 3.737519
-6.706265 -5.510654 -4.571083 0.030948 0.084763 0.485383 7.020776 1.246778 3.755948
-6.700141 -5.516471 -4.573047 0.030731 0.085505 0.482866 7.010490 1.249187 3.774315
-6.693958 -5.522314 -4.575049 0.030514 0.086247 0.480331 7.000154 1.251711 3.792620
-6.687717 -5.528183 -4.577087 0.030297 0.086989 0.477776 6.989767 1.254348 3.810862
-6.681418 -5.534078 -4.579163 0.030080 0.087729 0.475203 6.979331 1.257097 3.829039
-6.675061 -5.539998 -4.581275 0.029863 0.088468 0.472611 6.968848 1.259957 3.847150
-6.668646 -5.545944 -4.583424 0.029646 0.089207 0.470000 6.958318 1.262926 3.865195
-6.662172 -5.551915 -4.585609 0.029429 0.089945 0.467371 6.947741 1.266004 3.883172
-6.655639 -5.557911 -4.587831 0.029212 0.090682 0.464723 6.937120 1.269188 3.901081
-6.649048 -5.563932 -4.590090 0.028994 0.091418 0.462057 6.926454 1.272478 3.918920
-6.642398 -5.569978 -4.592384 0.028777 0.092153 0.459373 6.915746 1.275872 3.936688
-6.635690 -5.576048 -4.594715 0.028560 0.092887 0.456670 6.904995 1.279369 3.954385
-6.628923 -5.582143 -4.597082 0.028342 0.093620 0.453950 6.894203 1.282968 3.972009
-6.622097 -5.588263 -4.599484 0.028125 0.094352 0.451211 6.883371 1.286667 3.989561
-6.615212 -5.594406 -4.601922 0.027907 0.095084 0.448455 6.872499 1.290464 4.007038
-6.608268 -5.600574 -4.604396 0.027689 0.095814 0.445681 6.861590 1.294360 4.024440
-6.601265 -5.606765 -4.606906 0.027471 0.096543 0.442890 6.850643 1.298352 4.041766
-6.594203 -5.612980 -4.609450 0.027253 0.097272 0.440081 6.839660 1.302438 4.059016
-6.587083 -5.619219 -4.612030 0.027036 0.097999 0.437254 6.828641 1.306618 4.076188
-6.579902 -5.625481 -4.614646 0.026818 0.098726 0.434411 6.817588 1.310891 4.093283
-6.572663 -5.631765 -4.617296 0.026599 0.099452 0.431550 6.806501 1.315254 4.110298
-6.565364 -5.638073 -4.619981 0.026381 0.100176 0.428672 6.795382 1.319707 4.127233
-6.558006 -5.644404 -4.622700 0.026163 0.100900 0.425777 6.784232 1.324248 4.144088
-6.550589 -5.650757 -4.625455 0.025945 0.101623 0.422866 6.773051 1.328875 4.160862
-6.543111 -5.657133 -4.628244 0.025727 0.102344 0.419937 6.761840 1.333588 4.177555
-6.535575 -5.663531 -4.631067 0.025508 0.103065 0.416992 6.750600 1.338386 4.194165
-6.527979 -5.669951 -4.633924 0.025290 0.103784 0.414031 6.739333 1.343266 4.210691
-6.520323 -5.676393 -4.636816 0.025071 0.104503 0.411053 6.728040 1.348227 4.227134
-6.512607 -5.682856 -4.639741 0.024853 0.105221 0.408060 6.716720 1.353269 4.243493
-6.504831 -5.689341 -4.642701 0.024634 0.105937 0.405050 6.705376 1.358389 4.259767
-6.496996 -5.695847 -4.645694 0.024415 0.106653 0.402024 6.694007 1.363587 4.275955
-6.489100 -5.702375 -4.648720 0.024197 0.107367 0.398982 6.682616 1.368861 4.292058
-6.481145 -5.708923 -4.651780 0.023978 0.108080 0.395924 6.671203 1.374209 4.308074
-6.473129 -5.715492 -4.654874 0.023759 0.108793 0.392851 6.659769 1.379631 4.324002
-6.465054 -5.722081 -4.658000 0.023540 0.109504 0.389762 6.648315 1.385125 4.339844
-6.456918 -5.728691 -4.661160 0.023321 0.110214 0.386658 6.636841 1.390689 4.355597
-6.448722 -5.735321 -4.664353 0.023102 0.110923 0.383539 6.625350 1.396323 4.371261
-6.440465 -5.741970 -4.667578 0.022883 0.111631 0.380404 6.613841 1.402025 4.386837
-6.432149 -5.748639 -4.670836 0.022664 0.112338 0.377255 6.602316 1.407793 4.402323
-6.423771 -5.755328 -4.674127 0.022444 0.113044 0.374090 6.590775 1.413627 4.417719
-6.415334 -5.762036 -4.677449 0.022225 0.113748 0.370911 6.579220 1.419526 4.433025
-6.406835 -5.768763 -4.680805 0.022006 0.114452 0.367717 6.567651 1.425487 4.448240
-6.398276 -5.775509 -4.684192 0.021786 0.115154 0.364509 6.556070 1.431509 4.463365
-6.389657 -5.782274 -4.687611 0.021567 0.115855 0.361286 6.544477 1.437592 4.478398
-6.380976 -5.789056 -4.691062 0.021347 0.116556 0.358049 6.532874 1.443733 4.493339
-6.372235 -5.795857 -4.694545 0.021128 0.117254 0.354798 6.521260 1.449933 4.508188
-6.363433 -5.802676 -4.698060 0.020908 0.117952 0.351532 6.509638 1.456188 4.522945
-6.354570 -5.809513 -4.701605 0.020689 0.118649 0.348253 6.498007 1.462499 4.537609
-6.345646 -5.816367 -4.705183 0.020469 0.119344 0.344961 6.486370 1.468864 4.552181
-6.336661 -5.823239 -4.708791 0.020249 0.120039 0.341654 6.474726 1.475281 4.566659
-6.327615 -5.830127 -4.712430 0.020029 0.120732 0.338334 6.463077 1.481750 4.581043
-6.318508 -5.837033 -4.716100 0.019810 0.121424 0.335001 6.451423 1.488269 4.595334
-6.309340 -5.843955 -4.719801 0.019590 0.122114 0.331655 6.439766 1.494837 4.609532
-6.300110 -5.850893 -4.723533 0.019370 0.122804 0.328295 6.428106 1.501452 4.623634
-6.290819 -5.857848 -4.727294 0.019150 0.123492 0.324922 6.416444 1.508114 4.637643
-6.281467 -5.864818 -4.731087 0.018930 0.124179 0.321537 6.404782 1.514822 4.651557
-6.272053 -5.871804 -4.734909 0.018710 0.124865 0.318139 6.393119 1.521573 4.665377
-6.262578 -5.878806 -4.738761 0.018489 0.125550 0.314728 6.381458 1.528368 4.679102
-6.253041 -5.885822 -4.742644 0.018269 0.126233 0.311305 6.369798 1.535204 4.692731
-6.243443 -5.892854 -4.746556 0.018049 0.126915 0.307870 6.358140 1.542082 4.706266
-6.233783 -5.899900 -4.750497 0.017829 0.127596 0.304423 6.346486 1.548998 4.719705
-6.224061 -5.906961 -4.754468 0.017608 0.128276 0.300963 6.334837 1.555953 4.733049
-6.214278 -5.914036 -4.758469 0.017388 0.128954 0.297492 6.323192 1.562946 4.746298
-6.204433 -5.921125 -4.762498 0.017168 0.129631 0.294008 6.311554 1.569974 4.759451
-6.194526 -5.928228 -4.766557 0.016947 0.130307 0.290514 6.299922 1.577038 4.772508
-6.184557 -5.935344 -4.770644 0.016727 0.130981 0.287008 6.288298 1.584135 4.785470
-6.174526 -5.942474 -4.774760 0.016506 0.131655 0.283490 6.276682 1.591266 4.798336
-6.164434 -5.949616 -4.778905 0.016286 0.132327 0.279961 6.265076 1.598428 4.811107
-6.154279 -5.956771 -4.783078 0.016065 0.132997 0.276421 6.253480 1.605622 4.823781
-6.144062 -5.963939 -4.787279 0.015844 0.133666 0.272871 6.241895 1.612845 4.836360
-6.133783 -5.971118 -4.791508 0.015624 0.134334 0.269309 6.230322 1.620096 4.848843
-6.123442 -5.978310 -4.795766 0.015403 0.135001 0.265737 6.218761 1.627376 4.861230
-6.113038 -5.985514 -4.800051 0.015182 0.135666 0.262155 6.207214 1.634682 4.873521
-6.102573 -5.992728 -4.804364 0.014961 0.136330 0.258562 6.195681 1.642014 4.885717
-6.092045 -5.999954 -4.808704 0.014741 0.136993 0.254959 6.184163 1.649371 4.897817
-6.081455 -6.007191 -4.813072 0.014520 0.137654 0.251345 6.172660 1.656752 4.909821
-6.070802 -6.014439 -4.817467 0.014299 0.138314 0.247722 6.161174 1.664156 4.921729
-6.060087 -6.021697 -4.821889 0.014078 0.138973 0.244089 6.149706 1.671582 4.933541
-6.049310 -6.028965 -4.826338 0.013857 0.139630 0.240447 6.138256 1.679028 4.945259
-6.038470 -6.036243 -4.830813 0.013636 0.140286 0.236795 6.126824 1.686495 4.956880
-6.027567 -6.043530 -4.835316 0.013415 0.140940 0.233133 6.115412 1.693982 4.968406
-6.016602 -6.050827 -4.839845 0.013194 0.141593 0.229463 6.104021 1.701486 4.979837
-6.005574 -6.058132 -4.844400 0.012973 0.142245 0.225783 6.092650 1.709009 4.991172
-5.994484 -6.065447 -4.848981 0.012751 0.142895 0.222094 6.081302 1.716548 5.002413
-5.983331 -6.072770 -4.853588 0.012530 0.143544 0.218397 6.069976 1.724103 5.013558
-5.972115 -6.080101 -4.858221 0.012309 0.144191 0.214691 6.058673 1.731673 5.024608
-5.960837 -6.087440 -4.862879 0.012088 0.144837 0.210977 6.047395 1.739258 5.035563
-5.949496 -6.094787 -4.867564 0.011867 0.145482 0.207254 6.036141 1.746856 5.046424
-5.938092 -6.102141 -4.872273 0.011645 0.146125 0.203523 6.024913 1.754467 5.057190
-5.926625 -6.109502 -4.877008 0.011424 0.146767 0.199784 6.013711 1.762090 5.067862
-5.915095 -6.116870 -4.881768 0.011203 0.147407 0.196037 6.002536 1.769724 5.078439
-5.903502 -6.124244 -4.886552 0.010981 0.148046 0.192283 5.991388 1.777369 5.088922
-5.891847 -6.131625 -4.891362 0.010760 0.148683 0.188520 5.980269 1.785024 5.099311
-5.880128 -6.139012 -4.896196 0.010538 0.149319 0.184751 5.969179 1.792688 5.109606
-5.868347 -6.146404 -4.901054 0.010317 0.149953 0.180974 5.958118 1.800361 5.119808
-5.856502 -6.153801 -4.905936 0.010095 0.150586 0.177190 5.947088 1.808042 5.129916
-5.844595 -6.161204 -4.910843 0.009874 0.151218 0.173399 5.936088 1.815730 5.139930
-5.832624 -6.168612 -4.915774 0.009652 0.151847 0.169601 5.925121 1.823424 5.149852
-5.820590 -6.176023 -4.920728 0.009431 0.152476 0.165796 5.914185 1.831125 5.159680
-5.808493 -6.183440 -4.925706 0.009209 0.153103 0.161985 5.903283 1.838831 5.169415
-5.796334 -6.190860 -4.930707 0.008988 0.153728 0.158167 5.892414 1.846543 5.179058
-5.784110 -6.198283 -4.935732 0.008766 0.154352 0.154344 5.881579 1.854258 5.188608
-5.771824 -6.205710 -4.940780 0.008544 0.154974 0.150514 5.870779 1.861978 5.198066
-5.759475 -6.213140 -4.945850 0.008323 0.155595 0.146678 5.860014 1.869701 5.207432
-5.747062 -6.220573 -4.950944 0.008101 0.156215 0.142836 5.849286 1.877427 5.216706
-5.734587 -6.228008 -4.956060 0.007879 0.156832 0.138989 5.838594 1.885155 5.225889
-5.722048 -6.235445 -4.961198 0.007658 0.157448 0.135136 5.827939 1.892885 5.234980
-5.709446 -6.242884 -4.966359 0.007436 0.158063 0.131278 5.817322 1.900617 5.243979
-5.696780 -6.250325 -4.971542 0.007214 0.158676 0.127415 5.806744 1.908349 5.252888
-5.684052 -6.257767 -4.976747 0.006992 0.159288 0.123547 5.796204 1.916083 5.261705
-5.671260 -6.265209 -4.981974 0.006770 0.159898 0.119673 5.785704 1.923816 5.270432
-5.658405 -6.272653 -4.987222 0.006549 0.160506 0.115795 5.775244 1.931550 5.279069
-5.645486 -6.280096 -4.992492 0.006327 0.161113 0.111913 5.764825 1.939283 5.287615
-5.632505 -6.287540 -4.997783 0.006105 0.161718 0.108026 5.754447 1.947015 5.296071
-5.619460 -6.294983 -5.003095 0.005883 0.162322 0.104135 5.744111 1.954746 5.304438
-5.606352 -6.302426 -5.008428 0.005661 0.162924 0.100240 5.733816 1.962476 5.312715
-5.593180 -6.309867 -5.013782 0.005439 0.163524 0.096340 5.723565 1.970204 5.320902
-5.579946 -6.317308 -5.019156 0.005217 0.164123 0.092437 5.713357 1.977930 5.329001
-5.566648 -6.324747 -5.024551 0.004995 0.164720 0.088531 5.703192 1.985654 5.337010
-5.553287 -6.332184 -5.029966 0.004774 0.165315 0.084621 5.693072 1.993375 5.344931
-5.539862 -6.339618 -5.035401 0.004552 0.165909 0.080707 5.682997 2.001094 5.352763
-5.526374 -6.347051 -5.040857 0.004330 0.166502 0.076790 5.672967 2.008810 5.360507
-5.512823 -6.354480 -5.046331 0.004108 0.167092 0.072871 5.662982 2.016522 5.368163
-5.499209 -6.361907 -5.051826 0.003886 0.167681 0.068948 5.653044 2.024232 5.375731
-5.485532 -6.369329 -5.057340 0.003664 0.168269 0.065023 5.643152 2.031938 5.383211
-5.471791 -6.376749 -5.062873 0.003442 0.168854 0.061095 5.633307 2.039641 5.390604
-5.457987 -6.384164 -5.068425 0.003220 0.169438 0.057164 5.623510 2.047340 5.397910
-5.444120 -6.391574 -5.073996 0.002998 0.170021 0.053232 5.613761 2.055035 5.405129
-5.430190 -6.398980 -5.079586 0.002776 0.170601 0.049297 5.604060 2.062727 5.412262
-5.416196 -6.406381 -5.085194 0.002554 0.171180 0.045361 5.594407 2.070414 5.419307
-5.402140 -6.413777 -5.090820 0.002332 0.171757 0.041422 5.584804 2.078098 5.426267
-5.388020 -6.421166 -5.096465 0.002110 0.172333 0.037482 5.575250 2.085778 5.433140
-5.373838 -6.428550 -5.102128 0.001888 0.172907 0.033541 5.565747 2.093454 5.439928
-5.359592 -6.435928 -5.107809 0.001665 0.173479 0.029598 5.556293 2.101126 5.446630
-5.345283 -6.443299 -5.113507 0.001443 0.174049 0.025654 5.546890 2.108794 5.453246
-5.330911 -6.450663 -5.119223 0.001221 0.174618 0.021709 5.537538 2.116458 5.459778
-5.316476 -6.458019 -5.124956 0.000999 0.175185 0.017763 5.528238 2.124119 5.466224
-5.301978 -6.465368 -5.130706 0.000777 0.175750 0.013816 5.518989 2.131776 5.472586
-5.287417 -6.472709 -5.136473 0.000555 0.176314 0.009869 5.509792 2.139429 5.478863
-5.272794 -6.480042 -5.142257 0.000333 0.176876 0.005922 5.500647 2.147079 5.485055
-5.258107 -6.487366 -5.148057 0.000111 0.177436 0.001974 5.491555 2.154725 5.491164
