Data for module tests of Kalman filtration. First and second lines are ignored.
Format of data: ackX  ackY  ackZ  gyroX  gyroY  gyroZ magX magY magZ
5.893195 -3.446890 -9.297179 0.151372 -0.171994 0.000026 -2.267605 -2.951838 7.148253
1.497262 -0.774324 -7.036809 0.151371 -0.172551 -0.003922 -2.254697 -2.941605 7.156550
5.815595 3.772407 -8.776669 0.151371 -0.173106 -0.007869 -2.241643 -2.931279 7.164882
7.421428 0.508624 -12.150280 0.151370 -0.173659 -0.011816 -2.228442 -2.920860 7.173250
5.281920 -0.798453 -10.569662 0.151368 -0.174210 -0.015763 -2.215095 -2.910349 7.181652
3.012354 -0.562325 -4.978473 0.151366 -0.174759 -0.019709 -2.201601 -2.899743 7.190086
3.705844 -1.807926 -9.436640 0.151364 -0.175307 -0.023654 -2.187960 -2.889044 7.198552
5.132895 2.413687 -10.477558 0.151362 -0.175853 -0.027598 -2.174172 -2.878252 7.207048
1.301216 -1.697467 -9.980822 0.151359 -0.176397 -0.031541 -2.160237 -2.867365 7.215573
7.715215 -3.027231 -5.857875 0.151356 -0.176939 -0.035482 -2.146154 -2.856384 7.224126
7.981122 0.293157 -12.235460 0.151352 -0.177480 -0.039422 -2.131924 -2.845308 7.232705
5.139549 1.566774 -6.810878 0.151349 -0.178018 -0.043361 -2.117546 -2.834138 7.241309
8.209121 1.455058 -4.903683 0.151344 -0.178555 -0.047297 -2.103021 -2.822872 7.249938
1.133056 2.391442 -12.136990 0.151340 -0.179090 -0.051232 -2.088348 -2.811512 7.258588
5.159572 1.048075 -6.387220 0.151335 -0.179624 -0.055164 -2.073527 -2.800056 7.267261
3.254578 0.633729 -5.319078 0.151330 -0.180155 -0.059095 -2.058558 -2.788504 7.275953
6.144726 2.085691 -8.509260 0.151324 -0.180685 -0.063023 -2.043441 -2.776856 7.284663
4.210726 2.804542 -6.781972 0.151318 -0.181212 -0.066948 -2.028176 -2.765113 7.293391
7.579102 -4.141803 -11.692003 0.151312 -0.181738 -0.070871 -2.012763 -2.753272 7.302135
5.297509 2.610360 -10.350616 0.151305 -0.182262 -0.074790 -1.997203 -2.741335 7.310893
7.139616 0.851748 -6.673967 0.151298 -0.182784 -0.078707 -1.981494 -2.729301 7.319665
8.076360 1.880015 -10.828629 0.151291 -0.183305 -0.082621 -1.965638 -2.717170 7.328448
1.249493 -3.047661 -6.745831 0.151283 -0.183823 -0.086531 -1.949634 -2.704942 7.337242
1.916026 -2.522172 -8.872778 0.151275 -0.184339 -0.090437 -1.933482 -2.692615 7.346045
4.592721 -3.582531 -8.456305 0.151267 -0.184854 -0.094340 -1.917182 -2.680191 7.354855
1.466403 -2.980986 -6.537328 0.151258 -0.185367 -0.098240 -1.900736 -2.667668 7.363671
3.514502 -1.885139 -5.976821 0.151249 -0.185878 -0.102135 -1.884141 -2.655046 7.372492
8.677928 3.413777 -7.923687 0.151240 -0.186387 -0.106026 -1.867400 -2.642326 7.381316
2.672912 -2.013632 -7.155342 0.151230 -0.186894 -0.109913 -1.850511 -2.629507 7.390142
5.378408 -2.765263 -4.888634 0.151220 -0.187399 -0.113795 -1.833475 -2.616588 7.398969
3.461127 -3.178053 -9.935895 0.151209 -0.187902 -0.117673 -1.816293 -2.603569 7.407794
1.659989 1.787441 -6.231173 0.151199 -0.188404 -0.121547 -1.798964 -2.590450 7.416616
5.435033 -3.766875 -11.037143 0.151187 -0.188903 -0.125415 -1.781488 -2.577231 7.425434
6.924931 -1.585833 -5.877434 0.151176 -0.189401 -0.129278 -1.763867 -2.563912 7.434247
1.775934 1.159639 -11.074890 0.151164 -0.189896 -0.133136 -1.746100 -2.550491 7.443052
3.862376 -1.726571 -5.224707 0.151152 -0.190390 -0.136989 -1.728187 -2.536970 7.451849
7.378167 0.585415 -5.690897 0.151139 -0.190882 -0.140836 -1.710128 -2.523347 7.460636
2.384227 -3.944236 -7.199362 0.151126 -0.191372 -0.144678 -1.691925 -2.509622 7.469410
4.917776 -0.337309 -10.586132 0.151113 -0.191859 -0.148514 -1.673577 -2.495795 7.478171
7.442279 2.096808 -12.507789 0.151100 -0.192345 -0.152344 -1.655084 -2.481866 7.486918
4.400122 3.051428 -8.979857 0.151086 -0.192829 -0.156167 -1.636448 -2.467834 7.495648
7.384944 -0.229845 -9.184434 0.151071 -0.193311 -0.159985 -1.617668 -2.453699 7.504359
0.763300 -0.492152 -5.653766 0.151057 -0.193791 -0.163796 -1.598744 -2.439462 7.513052
7.816425 -2.258191 -11.612369 0.151042 -0.194269 -0.167601 -1.579677 -2.425120 7.521723
0.534039 -2.008945 -8.441463 0.151026 -0.194745 -0.171399 -1.560469 -2.410675 7.530371
7.148873 0.823204 -5.386508 0.151011 -0.195219 -0.175190 -1.541117 -2.396126 7.538994
6.547025 -3.230220 -4.986760 0.150995 -0.195691 -0.178974 -1.521625 -2.381473 7.547592
3.266383 0.196703 -6.855984 0.150978 -0.196162 -0.182751 -1.501991 -2.366715 7.556162
7.429093 -1.936902 -9.010973 0.150962 -0.196630 -0.186520 -1.482217 -2.351852 7.564703
1.779904 -0.885904 -9.072513 0.150945 -0.197096 -0.190283 -1.462302 -2.336884 7.573213
1.449578 0.489482 -5.559699 0.150927 -0.197560 -0.194037 -1.442248 -2.321810 7.581690
3.828553 -3.236157 -10.380511 0.150909 -0.198022 -0.197784 -1.422055 -2.306631 7.590133
0.861107 -4.174528 -12.534477 0.150891 -0.198482 -0.201523 -1.401723 -2.291346 7.598540
4.776953 -0.164512 -10.319013 0.150873 -0.198940 -0.205254 -1.381253 -2.275954 7.606909
6.391254 0.686880 -5.245058 0.150854 -0.199396 -0.208977 -1.360646 -2.260457 7.615240
4.218301 -0.550291 -6.458088 0.150835 -0.199850 -0.212691 -1.339902 -2.244852 7.623529
4.888248 1.423896 -5.418297 0.150815 -0.200302 -0.216397 -1.319022 -2.229141 7.631777
1.983132 0.143761 -9.061700 0.150795 -0.200752 -0.220094 -1.298007 -2.213322 7.639979
5.216003 -3.109525 -7.374534 0.150775 -0.201200 -0.223783 -1.276857 -2.197396 7.648136
0.402592 -2.934532 -5.487409 0.150755 -0.201646 -0.227463 -1.255572 -2.181362 7.656246
6.393146 -0.494040 -12.263857 0.150734 -0.202090 -0.231133 -1.234155 -2.165220 7.664306
1.823897 -4.677570 -5.086045 0.150713 -0.202531 -0.234795 -1.212604 -2.148970 7.672315
6.866320 -1.224427 -4.902338 0.150691 -0.202971 -0.238447 -1.190922 -2.132611 7.680272
6.544424 -0.891219 -11.789231 0.150669 -0.203409 -0.242089 -1.169109 -2.116144 7.688174
1.869467 1.835546 -10.251248 0.150647 -0.203844 -0.245722 -1.147165 -2.099568 7.696020
6.062989 -3.547600 -6.997343 0.150624 -0.204278 -0.249345 -1.125092 -2.082883 7.703808
0.563664 0.875269 -11.882744 0.150601 -0.204709 -0.252959 -1.102890 -2.066089 7.711537
7.987676 -0.108346 -10.707763 0.150578 -0.205138 -0.256562 -1.080560 -2.049186 7.719205
3.552497 2.577665 -8.808464 0.150554 -0.205566 -0.260155 -1.058104 -2.032172 7.726810
0.590347 0.393136 -9.285566 0.150530 -0.205991 -0.263737 -1.035521 -2.015049 7.734350
1.235949 1.308732 -8.636201 0.150506 -0.206414 -0.267309 -1.012813 -1.997817 7.741824
0.742737 2.297236 -5.948396 0.150481 -0.206835 -0.270871 -0.989980 -1.980474 7.749230
0.470909 0.200626 -5.786755 0.150456 -0.207254 -0.274421 -0.967025 -1.963020 7.756566
2.783167 0.400541 -9.272409 0.150430 -0.207671 -0.277961 -0.943947 -1.945457 7.763830
3.557228 -4.810376 -6.023933 0.150405 -0.208085 -0.281490 -0.920747 -1.927782 7.771022
7.465534 -1.129857 -8.363757 0.150379 -0.208498 -0.285008 -0.897427 -1.909997 7.778138
7.886027 -1.740415 -11.170768 0.150352 -0.208908 -0.288514 -0.873988 -1.892102 7.785178
6.856285 0.525233 -11.564788 0.150325 -0.209317 -0.292008 -0.850430 -1.874095 7.792139
-0.022902 -3.647810 -11.292439 0.150298 -0.209723 -0.295492 -0.826755 -1.855977 7.799021
7.098427 0.659200 -11.895054 0.150271 -0.210127 -0.298963 -0.802964 -1.837749 7.805820
3.267573 0.264147 -10.378336 0.150243 -0.210529 -0.302423 -0.779058 -1.819408 7.812536
4.625862 -3.355773 -11.447315 0.150215 -0.210928 -0.305870 -0.755038 -1.800957 7.819167
1.493271 0.652274 -10.949502 0.150186 -0.211326 -0.309305 -0.730905 -1.782394 7.825711
1.967191 -1.213985 -11.212449 0.150157 -0.211722 -0.312728 -0.706660 -1.763720 7.832166
2.624655 0.020259 -6.986522 0.150128 -0.212115 -0.316139 -0.682305 -1.744935 7.838531
3.706930 -0.156087 -10.435601 0.150099 -0.212506 -0.319537 -0.657841 -1.726038 7.844803
2.167716 -3.974480 -6.243107 0.150069 -0.212895 -0.322922 -0.633268 -1.707029 7.850982
2.033069 2.148250 -12.098745 0.150038 -0.213282 -0.326295 -0.608589 -1.687909 7.857066
4.618778 -2.864803 -8.945885 0.150008 -0.213667 -0.329655 -0.583804 -1.668678 7.863052
3.998899 -4.732473 -9.520754 0.149977 -0.214049 -0.333001 -0.558915 -1.649335 7.868940
1.417689 2.183379 -7.492212 0.149946 -0.214430 -0.336334 -0.533923 -1.629880 7.874727
0.575154 -2.300018 -10.581763 0.149914 -0.214808 -0.339654 -0.508829 -1.610314 7.880411
2.045586 -0.699118 -6.667739 0.149882 -0.215184 -0.342961 -0.483634 -1.590637 7.885992
3.366988 1.124987 -9.692650 0.149850 -0.215558 -0.346253 -0.458341 -1.570848 7.891468
5.503381 -2.357899 -5.450444 0.149817 -0.215929 -0.349532 -0.432950 -1.550948 7.896836
5.568010 -5.075184 -7.013851 0.149784 -0.216299 -0.352798 -0.407463 -1.530937 7.902095
6.840889 -2.463505 -12.491022 0.149751 -0.216666 -0.356049 -0.381882 -1.510814 7.907244
6.366780 -4.504453 -8.670824 0.149717 -0.217031 -0.359286 -0.356207 -1.490581 7.912281
6.829813 -1.096943 -12.657653 0.149683 -0.217394 -0.362509 -0.330439 -1.470237 7.917204
3.012374 0.242712 -10.988313 0.149648 -0.217755 -0.365717 -0.304582 -1.449782 7.922011
6.631803 -1.622881 -11.229085 0.149614 -0.218113 -0.368911 -0.278635 -1.429217 7.926702
1.011475 1.483181 -7.158219 0.149579 -0.218469 -0.372090 -0.252602 -1.408541 7.931274
4.720995 -4.471463 -6.407499 0.149543 -0.218823 -0.375255 -0.226482 -1.387755 7.935726
3.041885 -0.136941 -5.867243 0.149507 -0.219175 -0.378404 -0.200278 -1.366859 7.940056
0.267448 -0.525165 -12.977250 0.149471 -0.219525 -0.381539 -0.173991 -1.345853 7.944263
0.090678 1.875742 -8.732989 0.149435 -0.219872 -0.384658 -0.147622 -1.324737 7.948344
4.493788 -3.496456 -8.154928 0.149398 -0.220217 -0.387762 -0.121175 -1.303513 7.952300
-0.048911 -0.231312 -11.714638 0.149361 -0.220560 -0.390851 -0.094649 -1.282179 7.956127
4.249675 2.351414 -7.776953 0.149323 -0.220901 -0.393924 -0.068047 -1.260736 7.959825
1.931764 -1.761951 -12.936313 0.149286 -0.221239 -0.396982 -0.041370 -1.239185 7.963392
3.441060 2.474612 -7.354349 0.149247 -0.221576 -0.400024 -0.014620 -1.217525 7.966826
2.410682 -0.726969 -8.561113 0.149209 -0.221909 -0.403050 0.012202 -1.195758 7.970126
3.275372 -4.302329 -10.824199 0.149170 -0.222241 -0.406060 0.039093 -1.173883 7.973291
3.201936 -4.345642 -9.905900 0.149131 -0.222571 -0.409053 0.066052 -1.151900 7.976319
3.916369 0.980531 -9.397296 0.149091 -0.222898 -0.412031 0.093077 -1.129811 7.979208
4.543229 0.549013 -11.710352 0.149051 -0.223223 -0.414992 0.120166 -1.107615 7.981958
4.086035 0.637071 -9.803464 0.149011 -0.223545 -0.417937 0.147318 -1.085314 7.984566
2.619452 -1.626032 -11.442436 0.148971 -0.223866 -0.420866 0.174532 -1.062906 7.987031
5.749414 -1.537858 -12.360132 0.148930 -0.224184 -0.423777 0.201804 -1.040393 7.989353
1.979522 1.002267 -12.204063 0.148888 -0.224500 -0.426672 0.229133 -1.017776 7.991529
4.237995 0.314901 -7.506258 0.148847 -0.224813 -0.429550 0.256518 -0.995054 7.993558
-0.135758 2.076787 -9.806741 0.148805 -0.225125 -0.432411 0.283957 -0.972228 7.995439
3.480862 -4.815744 -9.335989 0.148762 -0.225434 -0.435254 0.311447 -0.949299 7.997170
0.207300 -3.152210 -12.158185 0.148720 -0.225740 -0.438081 0.338987 -0.926266 7.998751
1.704753 -0.329453 -9.080419 0.148677 -0.226045 -0.440890 0.366575 -0.903132 8.000180
5.308198 -1.035143 -12.679512 0.148634 -0.226347 -0.443681 0.394209 -0.879896 8.001455
0.900937 1.607552 -6.102838 0.148590 -0.226647 -0.446455 0.421888 -0.856558 8.002576
6.809698 -3.086619 -5.323882 0.148546 -0.226944 -0.449211 0.449608 -0.833120 8.003541
3.780295 -0.473193 -8.416755 0.148502 -0.227240 -0.451950 0.477369 -0.809582 8.004349
5.229816 -0.820259 -10.213831 0.148457 -0.227533 -0.454670 0.505168 -0.785944 8.004998
0.222676 -5.238507 -12.017072 0.148412 -0.227823 -0.457373 0.533003 -0.762208 8.005489
1.870851 -5.627141 -5.516996 0.148366 -0.228112 -0.460057 0.560873 -0.738373 8.005818
1.326954 1.899023 -13.012334 0.148321 -0.228398 -0.462723 0.588776 -0.714441 8.005986
1.936804 -3.537322 -10.353151 0.148275 -0.228681 -0.465371 0.616708 -0.690412 8.005992
4.980873 -2.208487 -12.793378 0.148228 -0.228963 -0.468000 0.644669 -0.666287 8.005833
-0.900967 -1.541279 -7.121569 0.148182 -0.229242 -0.470611 0.672656 -0.642066 8.005510
3.609903 1.657665 -7.006872 0.148134 -0.229519 -0.473203 0.700668 -0.617751 8.005020
4.709841 -3.206062 -9.087344 0.148087 -0.229793 -0.475776 0.728702 -0.593342 8.004364
3.812963 -1.739893 -7.970037 0.148039 -0.230065 -0.478331 0.756756 -0.568840 8.003539
0.476476 2.016752 -12.583061 0.147991 -0.230335 -0.480866 0.784828 -0.544246 8.002546
1.905054 2.024471 -9.391861 0.147943 -0.230602 -0.483383 0.812916 -0.519560 8.001383
3.476193 -5.782040 -7.128968 0.147894 -0.230868 -0.485880 0.841019 -0.494783 8.000049
4.491242 -4.147030 -10.102192 0.147845 -0.231130 -0.488358 0.869133 -0.469917 7.998543
0.636788 -5.270694 -11.523122 0.147795 -0.231391 -0.490817 0.897257 -0.444962 7.996864
2.393629 -1.791431 -6.575259 0.147746 -0.231649 -0.493256 0.925389 -0.419918 7.995012
1.796399 -2.710392 -5.669022 0.147695 -0.231905 -0.495676 0.953526 -0.394788 7.992986
1.149363 -4.871789 -7.730145 0.147645 -0.232158 -0.498076 0.981667 -0.369571 7.990785
5.828123 -2.055585 -9.251149 0.147594 -0.232409 -0.500456 1.009809 -0.344269 7.988408
-1.539738 -4.462022 -7.062558 0.147543 -0.232658 -0.502816 1.037950 -0.318882 7.985855
3.287146 0.355897 -6.599388 0.147491 -0.232904 -0.505157 1.066088 -0.293412 7.983124
3.876652 -5.346268 -6.856319 0.147440 -0.233148 -0.507477 1.094222 -0.267859 7.980215
-0.566790 -1.452405 -8.710695 0.147387 -0.233390 -0.509778 1.122348 -0.242225 7.977127
-1.539011 1.452931 -8.392703 0.147335 -0.233629 -0.512058 1.150465 -0.216511 7.973861
3.657903 -2.665484 -7.691453 0.147282 -0.233866 -0.514318 1.178570 -0.190717 7.970414
2.051979 -2.782490 -5.407083 0.147229 -0.234101 -0.516557 1.206661 -0.164845 7.966787
2.145477 -5.129493 -6.453995 0.147175 -0.234333 -0.518776 1.234737 -0.138896 7.962979
0.976309 -3.550519 -10.300909 0.147121 -0.234562 -0.520975 1.262795 -0.112870 7.958989
5.176552 -1.844037 -13.122257 0.147067 -0.234790 -0.523152 1.290833 -0.086770 7.954818
0.181303 -0.320005 -9.866757 0.147013 -0.235015 -0.525309 1.318848 -0.060595 7.950463
0.262994 -4.608115 -11.612219 0.146958 -0.235238 -0.527446 1.346839 -0.034348 7.945926
2.107440 -5.873314 -10.349217 0.146903 -0.235458 -0.529561 1.374804 -0.008029 7.941206
0.978557 -3.953594 -11.217118 0.146847 -0.235676 -0.531655 1.402739 0.018361 7.936302
4.058095 -5.111695 -6.909666 0.146791 -0.235891 -0.533729 1.430644 0.044820 7.931214
0.513991 -3.436307 -8.061568 0.146735 -0.236104 -0.535781 1.458516 0.071347 7.925941
-1.632755 -0.015838 -7.817510 0.146678 -0.236315 -0.537812 1.486352 0.097941 7.920484
5.450223 -5.710728 -7.840273 0.146621 -0.236523 -0.539821 1.514151 0.124600 7.914842
3.814518 0.551471 -8.911355 0.146564 -0.236729 -0.541810 1.541911 0.151324 7.909015
4.724800 -5.843292 -7.272999 0.146507 -0.236933 -0.543776 1.569628 0.178112 7.903002
3.370262 0.746920 -10.697497 0.146449 -0.237134 -0.545722 1.597302 0.204961 7.896804
2.086866 -2.630811 -11.910556 0.146390 -0.237333 -0.547645 1.624930 0.231870 7.890421
4.694639 -5.904815 -9.159279 0.146332 -0.237529 -0.549547 1.652510 0.258839 7.883851
-0.246382 0.936128 -9.019387 0.146273 -0.237723 -0.551427 1.680040 0.285866 7.877096
-1.342016 0.552775 -13.008864 0.146214 -0.237915 -0.553285 1.707517 0.312950 7.870156
-1.018675 -4.577732 -7.132325 0.146154 -0.238104 -0.555122 1.734940 0.340089 7.863029
0.682296 -6.128932 -6.682968 0.146094 -0.238291 -0.556936 1.762306 0.367282 7.855717
0.703459 -0.036825 -6.317038 0.146034 -0.238475 -0.558728 1.789613 0.394527 7.848218
3.186340 -1.997153 -6.164244 0.145973 -0.238657 -0.560499 1.816860 0.421824 7.840535
-1.453403 -5.645364 -13.082408 0.145912 -0.238836 -0.562246 1.844044 0.449171 7.832666
0.320388 -5.058114 -5.372590 0.145851 -0.239013 -0.563972 1.871162 0.476565 7.824611
1.027193 -0.365722 -7.811535 0.145789 -0.239188 -0.565675 1.898214 0.504007 7.816371
3.844754 0.883956 -10.873357 0.145727 -0.239360 -0.567356 1.925197 0.531495 7.807947
-0.706397 -5.844817 -8.661869 0.145665 -0.239530 -0.569015 1.952108 0.559026 7.799337
1.971997 -1.288870 -8.576040 0.145602 -0.239698 -0.570651 1.978946 0.586600 7.790544
1.208474 -5.154850 -7.241252 0.145539 -0.239863 -0.572264 2.005709 0.614215 7.781566
5.450906 -5.323760 -6.739453 0.145476 -0.240025 -0.573855 2.032395 0.641870 7.772405
4.609727 -5.918996 -9.538548 0.145412 -0.240185 -0.575422 2.059002 0.669563 7.763060
3.446840 -0.626354 -6.831826 0.145349 -0.240343 -0.576967 2.085527 0.697293 7.753532
1.780754 -2.023218 -10.589825 0.145284 -0.240498 -0.578490 2.111970 0.725057 7.743822
1.895047 -6.354684 -7.468036 0.145220 -0.240651 -0.579989 2.138327 0.752856 7.733930
4.136841 0.153447 -13.097342 0.145155 -0.240801 -0.581465 2.164597 0.780686 7.723856
4.738487 -5.791298 -6.555067 0.145089 -0.240949 -0.582919 2.190778 0.808547 7.713601
1.594726 -6.433339 -12.328867 0.145024 -0.241095 -0.584349 2.216868 0.836438 7.703166
2.138521 -0.803527 -13.065963 0.144958 -0.241238 -0.585756 2.242865 0.864355 7.692551
-1.221548 -4.731871 -7.641869 0.144891 -0.241379 -0.587140 2.268767 0.892298 7.681757
3.509738 -1.889848 -6.378195 0.144825 -0.241517 -0.588500 2.294573 0.920266 7.670785
0.952911 1.253046 -11.281674 0.144758 -0.241652 -0.589838 2.320281 0.948257 7.659635
2.822243 -1.857920 -11.126321 0.144691 -0.241786 -0.591151 2.345888 0.976268 7.648308
-0.493542 -1.175195 -6.870218 0.144623 -0.241917 -0.592442 2.371393 1.004299 7.636804
-2.141423 -3.703802 -6.910010 0.144555 -0.242045 -0.593709 2.396794 1.032348 7.625125
4.891143 1.277667 -9.954695 0.144487 -0.242171 -0.594953 2.422090 1.060413 7.613272
0.665548 -3.978056 -9.721224 0.144418 -0.242295 -0.596172 2.447278 1.088493 7.601244
3.335937 -0.653407 -5.418634 0.144349 -0.242416 -0.597369 2.472357 1.116586 7.589044
-1.223487 -3.709042 -7.687571 0.144280 -0.242534 -0.598541 2.497325 1.144690 7.576672
-1.564318 -4.134029 -6.883906 0.144210 -0.242650 -0.599690 2.522181 1.172804 7.564128
-1.144892 -4.111949 -9.659017 0.144140 -0.242764 -0.600816 2.546922 1.200927 7.551415
-0.102169 -6.164043 -9.312383 0.144070 -0.242875 -0.601917 2.571548 1.229055 7.538532
-0.751491 -2.224561 -13.132690 0.143999 -0.242984 -0.602995 2.596056 1.257189 7.525481
1.940350 -3.390013 -8.189191 0.143928 -0.243090 -0.604048 2.620445 1.285326 7.512264
-0.544758 -4.465873 -9.906137 0.143857 -0.243194 -0.605078 2.644713 1.313464 7.498880
1.384162 -5.825681 -12.305490 0.143786 -0.243296 -0.606084 2.668859 1.341602 7.485332
-1.212072 -5.963178 -12.603149 0.143714 -0.243395 -0.607066 2.692881 1.369738 7.471620
-1.558156 -1.363775 -9.014068 0.143641 -0.243491 -0.608023 2.716779 1.397871 7.457746
1.080140 0.689643 -8.244327 0.143569 -0.243585 -0.608957 2.740549 1.425999 7.443710
2.632955 -3.462483 -11.355811 0.143496 -0.243677 -0.609867 2.764191 1.454120 7.429514
4.347987 -0.454091 -7.247862 0.143423 -0.243766 -0.610752 2.787704 1.482233 7.415160
-2.670307 0.369033 -8.094095 0.143349 -0.243853 -0.611613 2.811085 1.510335 7.400648
4.394836 -2.535316 -10.894683 0.143275 -0.243937 -0.612450 2.834335 1.538425 7.385980
-2.505079 -3.538005 -10.395006 0.143201 -0.244018 -0.613263 2.857450 1.566502 7.371157
3.582564 0.948107 -12.902414 0.143126 -0.244098 -0.614051 2.880431 1.594564 7.356180
-0.405054 1.056273 -10.010992 0.143051 -0.244174 -0.614815 2.903275 1.622609 7.341051
-0.241434 -6.112580 -8.612052 0.142976 -0.244249 -0.615555 2.925981 1.650636 7.325772
-2.140546 -3.949538 -5.835875 0.142901 -0.244321 -0.616270 2.948549 1.678642 7.310343
2.267340 -5.031571 -7.387411 0.142825 -0.244390 -0.616961 2.970976 1.706626 7.294767
-0.747029 -4.028243 -9.379612 0.142749 -0.244457 -0.617628 2.993263 1.734587 7.279044
-1.779710 -4.700226 -10.978744 0.142672 -0.244521 -0.618270 3.015406 1.762523 7.263177
0.029556 -3.188682 -5.861579 0.142595 -0.244583 -0.618888 3.037407 1.790432 7.247166
3.256100 -4.706571 -5.649717 0.142518 -0.244643 -0.619481 3.059263 1.818312 7.231013
2.326094 -0.120678 -9.125622 0.142440 -0.244700 -0.620049 3.080973 1.846162 7.214720
-3.060706 0.628246 -7.931187 0.142363 -0.244754 -0.620593 3.102536 1.873981 7.198289
-2.983693 0.768505 -10.947248 0.142284 -0.244806 -0.621113 3.123952 1.901765 7.181721
4.067264 -5.689904 -13.295856 0.142206 -0.244856 -0.621607 3.145219 1.929515 7.165017
3.471050 -0.285619 -10.608832 0.142127 -0.244903 -0.622078 3.166337 1.957228 7.148179
-2.794547 -2.077580 -10.093708 0.142048 -0.244948 -0.622523 3.187304 1.984903 7.131210
3.818631 -0.070278 -8.341260 0.141969 -0.244990 -0.622944 3.208120 2.012537 7.114110
3.521130 -5.455258 -11.224317 0.141889 -0.245029 -0.623340 3.228783 2.040130 7.096882
-3.622010 -6.416593 -8.520858 0.141809 -0.245067 -0.623712 3.249294 2.067679 7.079526
-1.285126 -0.949245 -8.144945 0.141728 -0.245101 -0.624058 3.269651 2.095184 7.062046
-2.267880 -4.898463 -12.193799 0.141647 -0.245134 -0.624381 3.289853 2.122642 7.044442
0.779083 -6.023573 -6.428712 0.141566 -0.245163 -0.624678 3.309900 2.150052 7.026716
-3.510247 -0.387438 -11.411164 0.141485 -0.245191 -0.624951 3.329791 2.177412 7.008871
2.261340 -6.751281 -7.608753 0.141403 -0.245215 -0.625199 3.349525 2.204721 6.990907
-2.329823 0.742073 -9.132610 0.141321 -0.245238 -0.625422 3.369103 2.231977 6.972828
0.477772 -5.054946 -10.236364 0.141239 -0.245258 -0.625620 3.388522 2.259179 6.954634
0.245090 -3.115988 -9.507090 0.141156 -0.245275 -0.625794 3.407783 2.286324 6.936327
-2.643395 -5.530574 -8.093244 0.141073 -0.245290 -0.625942 3.426886 2.313412 6.917910
0.947730 -5.805034 -6.309091 0.140990 -0.245302 -0.626066 3.445829 2.340441 6.899384
0.295709 0.520327 -10.962668 0.140906 -0.245312 -0.626166 3.464612 2.367409 6.880751
3.641958 -2.427277 -7.030496 0.140822 -0.245320 -0.626240 3.483236 2.394315 6.862013
-3.467489 -2.570975 -6.040119 0.140737 -0.245325 -0.626290 3.501698 2.421158 6.843172
0.078304 -3.049631 -6.845284 0.140653 -0.245327 -0.626314 3.520000 2.447935 6.824230
1.216113 -3.619890 -8.770991 0.140568 -0.245327 -0.626314 3.538141 2.474645 6.805189
1.894959 -3.221787 -12.258836 0.140483 -0.245325 -0.626290 3.556120 2.501287 6.786050
-1.929270 0.050538 -8.505412 0.140397 -0.245320 -0.626240 3.573937 2.527860 6.766816
0.215171 0.137850 -11.170984 0.140311 -0.245312 -0.626166 3.591593 2.554362 6.747488
3.171933 -2.915246 -7.301891 0.140225 -0.245302 -0.626066 3.609086 2.580791 6.728069
1.326650 -6.266395 -5.418745 0.140138 -0.245290 -0.625942 3.626417 2.607145 6.708561
-0.776246 -6.786180 -12.338458 0.140051 -0.245275 -0.625794 3.643586 2.633425 6.688965
3.580723 -2.844842 -9.326412 0.139964 -0.245258 -0.625620 3.660592 2.659628 6.669284
0.938070 -5.673792 -7.632860 0.139876 -0.245238 -0.625422 3.677436 2.685752 6.649519
-2.280431 -2.362196 -5.505990 0.139789 -0.245215 -0.625199 3.694117 2.711797 6.629672
1.540257 0.314434 -7.084893 0.139700 -0.245191 -0.624951 3.710636 2.737760 6.609746
-0.094981 -3.880158 -8.069988 0.139612 -0.245163 -0.624678 3.726993 2.763642 6.589743
-1.863269 -3.918842 -7.849519 0.139523 -0.245134 -0.624381 3.743187 2.789439 6.569664
2.233227 -4.925491 -7.910043 0.139434 -0.245101 -0.624058 3.759219 2.815152 6.549511
-0.326377 -6.229628 -10.720447 0.139344 -0.245067 -0.623712 3.775089 2.840778 6.529287
-3.553401 -0.535717 -7.724041 0.139255 -0.245029 -0.623340 3.790797 2.866316 6.508993
2.196190 0.056406 -8.105333 0.139164 -0.244990 -0.622944 3.806344 2.891766 6.488632
-0.336189 -3.075608 -5.245166 0.139074 -0.244948 -0.622523 3.821729 2.917125 6.468205
0.547219 -0.718811 -9.216990 0.138983 -0.244903 -0.622078 3.836953 2.942393 6.447714
-4.332903 -5.595636 -8.732708 0.138892 -0.244856 -0.621607 3.852016 2.967567 6.427162
-3.704608 -3.763092 -11.731304 0.138801 -0.244806 -0.621113 3.866919 2.992648 6.406551
-1.938642 -6.685759 -9.695838 0.138709 -0.244754 -0.620593 3.881662 3.017634 6.385882
1.185663 -1.439139 -5.698358 0.138617 -0.244700 -0.620049 3.896245 3.042523 6.365158
1.464825 -4.931267 -6.065406 0.138525 -0.244643 -0.619481 3.910669 3.067314 6.344379
-0.410465 -5.463672 -11.758122 0.138432 -0.244583 -0.618888 3.924934 3.092007 6.323550
-4.279779 -6.247295 -5.691562 0.138339 -0.244521 -0.618270 3.939042 3.116599 6.302671
-3.795395 -0.951359 -11.877086 0.138246 -0.244457 -0.617628 3.952991 3.141091 6.281744
2.158120 -2.847032 -11.503235 0.138152 -0.244390 -0.616961 3.966784 3.165480 6.260772
1.666862 -1.347465 -12.314408 0.138058 -0.244321 -0.616270 3.980420 3.189766 6.239756
-3.366282 -2.834989 -10.471943 0.137964 -0.244249 -0.615555 3.993900 3.213948 6.218698
-2.624056 -1.353983 -8.133400 0.137870 -0.244174 -0.614815 4.007225 3.238024 6.197600
0.704921 -2.099767 -5.603653 0.137775 -0.244098 -0.614051 4.020396 3.261993 6.176465
-3.849733 -2.834954 -9.134322 0.137680 -0.244018 -0.613263 4.033412 3.285855 6.155294
-0.598059 -5.925859 -7.061196 0.137584 -0.243937 -0.612450 4.046276 3.309608 6.134089
-2.794858 -6.118626 -6.067771 0.137488 -0.243853 -0.611613 4.058987 3.333251 6.112852
-4.667010 -7.431499 -9.529258 0.137392 -0.243766 -0.610752 4.071547 3.356784 6.091585
-4.383384 0.102230 -7.995193 0.137296 -0.243677 -0.609867 4.083957 3.380205 6.070289
0.317364 -5.120210 -9.215516 0.137199 -0.243585 -0.608957 4.096216 3.403514 6.048967
-4.827688 -6.153787 -6.144614 0.137102 -0.243491 -0.608023 4.108327 3.426709 6.027621
-4.441647 -5.278534 -6.392583 0.137004 -0.243395 -0.607066 4.120290 3.449789 6.006252
-0.111351 -0.458187 -5.925612 0.136907 -0.243296 -0.606084 4.132105 3.472754 5.984863
-3.068108 -0.119798 -9.372988 0.136809 -0.243194 -0.605078 4.143775 3.495603 5.963454
2.053556 -4.076989 -8.302395 0.136710 -0.243090 -0.604048 4.155300 3.518335 5.942029
-4.985757 -1.978644 -9.654504 0.136612 -0.242984 -0.602995 4.166680 3.540949 5.920588
-4.154353 -3.046366 -12.932082 0.136513 -0.242875 -0.601917 4.177917 3.563444 5.899133
2.387940 -2.295367 -10.787816 0.136414 -0.242764 -0.600816 4.189013 3.585819 5.877667
0.877973 -2.570209 -10.685074 0.136314 -0.242650 -0.599690 4.199967 3.608074 5.856191
-0.891218 -7.365292 -7.527829 0.136214 -0.242534 -0.598541 4.210782 3.630208 5.834707
2.182740 -4.124023 -9.989197 0.136114 -0.242416 -0.597369 4.221458 3.652219 5.813217
2.114656 -7.774614 -5.498167 0.136013 -0.242295 -0.596172 4.231996 3.674108 5.791721
0.298693 -1.307323 -6.062462 0.135913 -0.242171 -0.594953 4.242399 3.695874 5.770223
-4.388163 -2.247199 -8.503274 0.135811 -0.242045 -0.593709 4.252666 3.717515 5.748723
-1.131867 -5.387269 -11.617474 0.135710 -0.241917 -0.592442 4.262799 3.739031 5.727224
-2.763158 -2.538474 -8.709315 0.135608 -0.241786 -0.591151 4.272799 3.760422 5.705726
-0.482646 -1.834325 -11.582090 0.135506 -0.241652 -0.589838 4.282668 3.781686 5.684232
-1.414204 -1.809131 -10.478507 0.135404 -0.241517 -0.588500 4.292407 3.802824 5.662744
1.317802 -2.497920 -10.249259 0.135301 -0.241379 -0.587140 4.302018 3.823834 5.641262
-1.111018 -1.243544 -10.925024 0.135198 -0.241238 -0.585756 4.311500 3.844716 5.619789
-5.285236 -3.095902 -8.550327 0.135095 -0.241095 -0.584349 4.320857 3.865469 5.598325
-3.654271 -0.605808 -5.364484 0.134991 -0.240949 -0.582919 4.330088 3.886093 5.576873
-1.579966 -2.393871 -8.711476 0.134887 -0.240801 -0.581465 4.339197 3.906587 5.555434
-3.231045 -7.908801 -10.492222 0.134783 -0.240651 -0.579989 4.348183 3.926951 5.534010
-0.204925 -6.753130 -11.022800 0.134679 -0.240498 -0.578490 4.357048 3.947184 5.512601
1.460312 -3.157465 -7.644454 0.134574 -0.240343 -0.576967 4.365795 3.967285 5.491210
-5.031040 -6.264290 -6.570497 0.134469 -0.240185 -0.575422 4.374423 3.987254 5.469838
-0.575697 -7.457045 -7.544133 0.134363 -0.240025 -0.573855 4.382935 4.007091 5.448486
-1.474829 -0.451013 -12.626451 0.134257 -0.239863 -0.572264 4.391333 4.026796 5.427155
0.173876 -4.852333 -7.286605 0.134151 -0.239698 -0.570651 4.399617 4.046366 5.405848
-5.094906 -1.985290 -12.370058 0.134045 -0.239530 -0.569015 4.407789 4.065803 5.384565
-0.564031 -4.052585 -8.526328 0.133938 -0.239360 -0.567356 4.415851 4.085106 5.363308
0.179018 -5.871318 -10.853914 0.133831 -0.239188 -0.565675 4.423804 4.104275 5.342077
0.328896 -0.396144 -11.419647 0.133724 -0.239013 -0.563972 4.431649 4.123308 5.320875
-2.745526 -7.311465 -5.263844 0.133617 -0.238836 -0.562246 4.439389 4.142206 5.299703
0.625450 -2.253178 -6.373626 0.133509 -0.238657 -0.560499 4.447025 4.160969 5.278561
-1.232891 -5.210188 -11.431601 0.133400 -0.238475 -0.558728 4.454558 4.179596 5.257451
1.245974 -0.896558 -6.644497 0.133292 -0.238291 -0.556936 4.461990 4.198086 5.236375
-2.974167 -4.151539 -7.434502 0.133183 -0.238104 -0.555122 4.469323 4.216440 5.215332
-3.580255 -6.985622 -10.229699 0.133074 -0.237915 -0.553285 4.476557 4.234657 5.194326
-3.135913 -7.022464 -10.955582 0.132965 -0.237723 -0.551427 4.483696 4.252736 5.173355
-1.492295 -7.737946 -9.337344 0.132855 -0.237529 -0.549547 4.490740 4.270679 5.152423
-0.269621 -1.121825 -7.854952 0.132745 -0.237333 -0.547645 4.497690 4.288484 5.131529
-2.265850 -1.641189 -10.080360 0.132634 -0.237134 -0.545722 4.504550 4.306151 5.110675
-2.997843 -7.068924 -7.419141 0.132524 -0.236933 -0.543776 4.511320 4.323680 5.089861
-5.828324 -6.312005 -4.808094 0.132413 -0.236729 -0.541810 4.518001 4.341070 5.069090
1.488642 -0.341382 -12.093060 0.132302 -0.236523 -0.539821 4.524596 4.358323 5.048361
-4.516707 -4.810992 -8.322531 0.132190 -0.236315 -0.537812 4.531107 4.375436 5.027676
-2.395754 -3.199262 -8.588988 0.132078 -0.236104 -0.535781 4.537534 4.392411 5.007036
0.209072 -2.531969 -8.044497 0.131966 -0.235891 -0.533729 4.543880 4.409248 4.986441
-4.891493 -3.218155 -5.183293 0.131854 -0.235676 -0.531655 4.550146 4.425945 4.965892
1.694188 -2.445741 -11.079667 0.131741 -0.235458 -0.529561 4.556334 4.442503 4.945391
0.686593 -7.206749 -6.622489 0.131628 -0.235238 -0.527446 4.562445 4.458921 4.924938
-5.834471 -3.049680 -12.084045 0.131515 -0.235015 -0.525309 4.568482 4.475201 4.904534
1.117597 -6.881477 -11.846003 0.131401 -0.234790 -0.523152 4.574445 4.491341 4.884179
-3.827129 -2.890460 -10.904813 0.131287 -0.234562 -0.520975 4.580337 4.507342 4.863875
1.512072 -7.954642 -8.595970 0.131173 -0.234333 -0.518776 4.586160 4.523203 4.843622
-1.181840 -5.038837 -12.063536 0.131058 -0.234101 -0.516557 4.591914 4.538924 4.823421
-1.289471 -6.570114 -7.472363 0.130943 -0.233866 -0.514318 4.597602 4.554507 4.803272
-3.198506 -1.925649 -5.467545 0.130828 -0.233629 -0.512058 4.603226 4.569949 4.783177
-0.137168 -2.682346 -9.124219 0.130713 -0.233390 -0.509778 4.608786 4.585252 4.763135
-1.249692 -7.683381 -9.433309 0.130597 -0.233148 -0.507477 4.614285 4.600416 4.743148
-2.921742 -5.061837 -10.278687 0.130481 -0.232904 -0.505157 4.619724 4.615439 4.723216
-4.595127 -2.421811 -5.423400 0.130365 -0.232658 -0.502816 4.625106 4.630324 4.703339
-0.288674 -8.045826 -8.013650 0.130248 -0.232409 -0.500456 4.630431 4.645069 4.683518
-1.785786 -6.370425 -9.250628 0.130131 -0.232158 -0.498076 4.635702 4.659674 4.663754
-0.059510 -5.932643 -8.510137 0.130014 -0.231905 -0.495676 4.640919 4.674141 4.644047
-0.285979 -4.754855 -5.750741 0.129896 -0.231649 -0.493256 4.646086 4.688468 4.624398
-1.145369 -7.668931 -4.560327 0.129779 -0.231391 -0.490817 4.651202 4.702656 4.604807
-2.049788 -6.707771 -11.630574 0.129661 -0.231130 -0.488358 4.656271 4.716704 4.585274
-6.103455 -8.170141 -9.711755 0.129542 -0.230868 -0.485880 4.661294 4.730614 4.565800
-2.171545 -1.616023 -7.360023 0.129423 -0.230602 -0.483383 4.666272 4.744385 4.546385
-1.849419 -6.705540 -10.331984 0.129305 -0.230335 -0.480866 4.671207 4.758017 4.527030
-1.454829 -5.766335 -8.167117 0.129185 -0.230065 -0.478331 4.676100 4.771511 4.507735
-5.695137 -4.783088 -4.400908 0.129066 -0.229793 -0.475776 4.680954 4.784866 4.488499
-3.521248 -7.916303 -9.987112 0.128946 -0.229519 -0.473203 4.685770 4.798083 4.469325
-2.319072 -2.497467 -9.772654 0.128826 -0.229242 -0.470611 4.690549 4.811161 4.450211
-2.808508 -3.395973 -6.283769 0.128705 -0.228963 -0.468000 4.695293 4.824102 4.431158
-1.230360 -7.337065 -5.042254 0.128584 -0.228681 -0.465371 4.700004 4.836905 4.412166
-3.772489 -4.201868 -4.378005 0.128463 -0.228398 -0.462723 4.704684 4.849570 4.393236
0.840172 -1.904363 -8.884698 0.128342 -0.228112 -0.460057 4.709333 4.862098 4.374367
-0.303649 -4.896199 -9.222679 0.128220 -0.227823 -0.457373 4.713954 4.874488 4.355561
-1.211495 -6.547422 -10.847504 0.128098 -0.227533 -0.454670 4.718547 4.886741 4.336816
-4.986075 -6.196552 -11.917262 0.127976 -0.227240 -0.451950 4.723116 4.898858 4.318133
-2.501744 -0.931777 -5.928550 0.127854 -0.226944 -0.449211 4.727660 4.910838 4.299512
-5.003405 -2.910398 -12.097939 0.127731 -0.226647 -0.446455 4.732182 4.922681 4.280953
-0.808224 -5.829444 -9.630079 0.127608 -0.226347 -0.443681 4.736684 4.934389 4.262457
-0.854803 -5.417598 -10.448393 0.127485 -0.226045 -0.440890 4.741166 4.945960 4.244023
-2.493378 -6.732133 -10.884963 0.127361 -0.225740 -0.438081 4.745630 4.957395 4.225651
-3.824442 -8.340272 -8.788517 0.127237 -0.225434 -0.435254 4.750078 4.968695 4.207342
-7.016939 -8.150733 -10.650271 0.127113 -0.225125 -0.432411 4.754512 4.979860 4.189094
-5.453952 -3.712947 -10.298037 0.126988 -0.224813 -0.429550 4.758932 4.990890 4.170910
-2.553732 -4.115828 -9.436287 0.126863 -0.224500 -0.426672 4.763340 5.001785 4.152787
0.811847 -7.340982 -5.318524 0.126738 -0.224184 -0.423777 4.767737 5.012546 4.134727
-0.831482 -4.339430 -11.966570 0.126613 -0.223866 -0.420866 4.772126 5.023172 4.116728
-5.042642 -0.551051 -6.421382 0.126487 -0.223545 -0.417937 4.776507 5.033665 4.098792
-5.426821 -3.412748 -11.125556 0.126361 -0.223223 -0.414992 4.780883 5.044024 4.080917
-2.739333 -2.247735 -8.766451 0.126235 -0.222898 -0.412031 4.785253 5.054249 4.063105
-6.544662 -3.860408 -6.956669 0.126108 -0.222571 -0.409053 4.789620 5.064342 4.045354
-6.233886 -1.640899 -8.156830 0.125982 -0.222241 -0.406060 4.793985 5.074301 4.027664
-5.048080 -6.076902 -6.714846 0.125854 -0.221909 -0.403050 4.798349 5.084128 4.010035
-3.276489 -5.021199 -9.430967 0.125727 -0.221576 -0.400024 4.802715 5.093823 3.992468
-2.770887 -8.458107 -7.601177 0.125599 -0.221239 -0.396982 4.807082 5.103386 3.974961
0.167363 -4.731244 -9.384230 0.125471 -0.220901 -0.393924 4.811452 5.112817 3.957515
-0.915484 -7.443181 -11.371216 0.125343 -0.220560 -0.390851 4.815827 5.122117 3.940130
-3.797731 -4.872257 -6.094904 0.125215 -0.220217 -0.387762 4.820209 5.131286 3.922804
-1.789505 -4.337002 -10.325857 0.125086 -0.219872 -0.384658 4.824597 5.140324 3.905539
-6.146824 -5.389145 -8.463918 0.124957 -0.219525 -0.381539 4.828994 5.149232 3.888333
0.377236 -1.198394 -9.488069 0.124827 -0.219175 -0.378404 4.833401 5.158009 3.871186
-0.543271 -4.135767 -7.587315 0.124698 -0.218823 -0.375255 4.837818 5.166657 3.854098
-0.726306 -2.319007 -7.637650 0.124568 -0.218469 -0.372090 4.842248 5.175175 3.837069
-7.470459 -5.666695 -8.427634 0.124437 -0.218113 -0.368911 4.846691 5.183564 3.820099
-2.439992 -7.458787 -7.381622 0.124307 -0.217755 -0.365717 4.851148 5.191824 3.803186
-4.301136 -8.206194 -10.804614 0.124176 -0.217394 -0.362509 4.855622 5.199955 3.786331
-4.422402 -4.982598 -9.225113 0.124045 -0.217031 -0.359286 4.860112 5.207959 3.769533
-0.708176 -3.790742 -10.291342 0.123914 -0.216666 -0.356049 4.864620 5.215834 3.752793
-6.438975 -2.513847 -6.634369 0.123782 -0.216299 -0.352798 4.869147 5.223581 3.736108
-4.869159 -8.204847 -8.481103 0.123650 -0.215929 -0.349532 4.873694 5.231201 3.719480
-3.940691 -4.378516 -5.204435 0.123518 -0.215558 -0.346253 4.878263 5.238694 3.702908
0.339208 -5.608047 -10.298977 0.123385 -0.215184 -0.342961 4.882854 5.246061 3.686392
0.271279 -3.232502 -4.328227 0.123252 -0.214808 -0.339654 4.887468 5.253301 3.669930
-2.596617 -3.487017 -8.734259 0.123119 -0.214430 -0.336334 4.892107 5.260414 3.653522
-7.484904 -3.936733 -5.932449 0.122986 -0.214049 -0.333001 4.896771 5.267402 3.637169
-2.502840 -8.190134 -10.546283 0.122852 -0.213667 -0.329655 4.901462 5.274265 3.620870
-1.702493 -4.723677 -8.683356 0.122719 -0.213282 -0.326295 4.906180 5.281002 3.604624
-5.461017 -7.203879 -4.167288 0.122584 -0.212895 -0.322922 4.910927 5.287614 3.588430
-4.602891 -7.586019 -7.402670 0.122450 -0.212506 -0.319537 4.915703 5.294102 3.572289
-7.562940 -4.316006 -8.548586 0.122315 -0.212115 -0.316139 4.920509 5.300465 3.556200
-1.739182 -7.405657 -7.964120 0.122180 -0.211722 -0.312728 4.925346 5.306705 3.540162
-3.097211 -8.029540 -7.719405 0.122045 -0.211326 -0.309305 4.930216 5.312820 3.524175
-1.650746 -7.645906 -6.082564 0.121909 -0.210928 -0.305870 4.935118 5.318813 3.508239
-1.239600 -4.615454 -11.633189 0.121774 -0.210529 -0.302423 4.940054 5.324682 3.492353
-5.051213 -0.940605 -10.501999 0.121637 -0.210127 -0.298963 4.945025 5.330428 3.476516
-1.726187 -5.841040 -9.394179 0.121501 -0.209723 -0.295492 4.950032 5.336052 3.460728
-3.596386 -5.475015 -4.271903 0.121364 -0.209317 -0.292008 4.955075 5.341553 3.444989
-5.107763 -7.836854 -9.581178 0.121227 -0.208908 -0.288514 4.960155 5.346932 3.429297
-6.736780 -2.235999 -6.572239 0.121090 -0.208498 -0.285008 4.965273 5.352190 3.413653
-2.726387 -3.431858 -7.218621 0.120953 -0.208085 -0.281490 4.970430 5.357326 3.398056
-5.732918 -7.970161 -4.934563 0.120815 -0.207671 -0.277961 4.975626 5.362341 3.382506
-5.519420 -3.962220 -7.821629 0.120677 -0.207254 -0.274421 4.980862 5.367235 3.367002
-2.792911 -6.668267 -9.282975 0.120539 -0.206835 -0.270871 4.986139 5.372008 3.351543
-2.549110 -0.972170 -9.286189 0.120400 -0.206414 -0.267309 4.991458 5.376661 3.336129
-1.264524 -1.553063 -4.832045 0.120261 -0.205991 -0.263737 4.996819 5.381194 3.320760
-2.097080 -6.694280 -3.944383 0.120122 -0.205566 -0.260155 5.002223 5.385607 3.305434
-1.357052 -2.031932 -5.291642 0.119983 -0.205138 -0.256562 5.007671 5.389901 3.290152
-4.362804 -1.965160 -4.062808 0.119843 -0.204709 -0.252959 5.013163 5.394075 3.274913
-7.977577 -2.945297 -7.753106 0.119703 -0.204278 -0.249345 5.018699 5.398129 3.259717
-3.460599 -0.905481 -4.694976 0.119563 -0.203844 -0.245722 5.024282 5.402065 3.244562
-0.395137 -6.026044 -9.239491 0.119423 -0.203409 -0.242089 5.029910 5.405883 3.229449
-5.695965 -6.096355 -7.060951 0.119282 -0.202971 -0.238447 5.035585 5.409581 3.214377
-5.964028 -1.464729 -6.067628 0.119141 -0.202531 -0.234795 5.041306 5.413162 3.199345
-1.980138 -7.330854 -10.293344 0.118999 -0.202090 -0.231133 5.047076 5.416624 3.184353
-7.836446 -3.851160 -6.688228 0.118858 -0.201646 -0.227463 5.052894 5.419969 3.169401
-5.300393 -8.620410 -10.121071 0.118716 -0.201200 -0.223783 5.058760 5.423196 3.154487
-4.264719 -2.507146 -5.286094 0.118574 -0.200752 -0.220094 5.064676 5.426306 3.139612
-0.862466 -2.446206 -7.735612 0.118432 -0.200302 -0.216397 5.070641 5.429298 3.124775
-5.599978 -7.747849 -6.867135 0.118289 -0.199850 -0.212691 5.076656 5.432174 3.109975
-6.712292 -7.869714 -5.203063 0.118146 -0.199396 -0.208977 5.082722 5.434933 3.095212
-4.733158 -3.010020 -10.477787 0.118003 -0.198940 -0.205254 5.088839 5.437575 3.080486
-4.896000 -4.360617 -4.474208 0.117860 -0.198482 -0.201523 5.095007 5.440101 3.065796
-1.131564 -6.011994 -8.327259 0.117716 -0.198022 -0.197784 5.101227 5.442510 3.051141
-7.626927 -3.564765 -9.542957 0.117572 -0.197560 -0.194037 5.107499 5.444804 3.036522
-1.531112 -5.681105 -7.649630 0.117428 -0.197096 -0.190283 5.113824 5.446981 3.021937
-7.026225 -8.291628 -4.991553 0.117283 -0.196630 -0.186520 5.120201 5.449043 3.007386
-2.082953 -5.126537 -4.435866 0.117138 -0.196162 -0.182751 5.126631 5.450990 2.992869
-3.510280 -7.392673 -11.001951 0.116993 -0.195691 -0.178974 5.133115 5.452820 2.978385
-7.494751 -6.314424 -5.377498 0.116848 -0.195219 -0.175190 5.139653 5.454536 2.963934
-2.366592 -7.653354 -4.850639 0.116703 -0.194745 -0.171399 5.146245 5.456136 2.949516
-7.245068 -3.107674 -10.575841 0.116557 -0.194269 -0.167601 5.152891 5.457622 2.935129
-5.434238 -2.320411 -6.951752 0.116411 -0.193791 -0.163796 5.159591 5.458992 2.920774
-1.023591 -6.316118 -6.553490 0.116264 -0.193311 -0.159985 5.166347 5.460248 2.906451
-7.097826 -5.713950 -3.176021 0.116118 -0.192829 -0.156167 5.173157 5.461389 2.892158
-5.887309 -1.585909 -5.571998 0.115971 -0.192345 -0.152344 5.180023 5.462416 2.877895
-8.415748 -5.006657 -5.725345 0.115824 -0.191859 -0.148514 5.186944 5.463328 2.863663
-5.451082 -7.626505 -6.638505 0.115676 -0.191372 -0.144678 5.193920 5.464126 2.849460
-1.093317 -1.187192 -3.195583 0.115529 -0.190882 -0.140836 5.200953 5.464810 2.835287
-2.016725 -3.631199 -4.148989 0.115381 -0.190390 -0.136989 5.208041 5.465379 2.821142
-1.811519 -2.770688 -9.767496 0.115233 -0.189896 -0.133136 5.215185 5.465835 2.807026
-8.102690 -4.797138 -10.332583 0.115084 -0.189401 -0.129278 5.222386 5.466176 2.792938
-5.252343 -6.374694 -8.030969 0.114936 -0.188903 -0.125415 5.229642 5.466404 2.778878
-0.807148 -1.916664 -3.468197 0.114787 -0.188404 -0.121547 5.236956 5.466518 2.764846
-6.754059 -8.486767 -4.384018 0.114638 -0.187902 -0.117673 5.244325 5.466519 2.750841
-3.295243 -4.108587 -9.308091 0.114488 -0.187399 -0.113795 5.251751 5.466405 2.736863
-4.540182 -8.432744 -7.564901 0.114338 -0.186894 -0.109913 5.259234 5.466179 2.722911
-7.312058 -6.258575 -3.499330 0.114188 -0.186387 -0.106026 5.266774 5.465838 2.708987
-2.075394 -6.826864 -7.970238 0.114038 -0.185878 -0.102135 5.274370 5.465384 2.695088
-3.002520 -2.626859 -10.882087 0.113888 -0.185367 -0.098240 5.282022 5.464817 2.681215
-7.113229 -8.349962 -5.317258 0.113737 -0.184854 -0.094340 5.289732 5.464136 2.667368
-1.895586 -6.668528 -5.407372 0.113586 -0.184339 -0.090437 5.297498 5.463342 2.653546
-7.807071 -5.892049 -4.250103 0.113435 -0.183823 -0.086531 5.305321 5.462435 2.639749
-3.369251 -3.332786 -4.097559 0.113283 -0.183305 -0.082621 5.313200 5.461414 2.625978
-6.594529 -3.685983 -8.522765 0.113131 -0.182784 -0.078707 5.321136 5.460280 2.612231
-1.409750 -2.649127 -4.298985 0.112979 -0.182262 -0.074790 5.329128 5.459033 2.598509
-3.093564 -2.547737 -7.645221 0.112827 -0.181738 -0.070871 5.337177 5.457673 2.584811
-7.953958 -7.622312 -4.340689 0.112675 -0.181212 -0.066948 5.345283 5.456199 2.571138
-8.770169 -4.548444 -4.273231 0.112522 -0.180685 -0.063023 5.353444 5.454612 2.557488
-1.443113 -5.219807 -10.292583 0.112369 -0.180155 -0.059095 5.361662 5.452912 2.543863
-4.866718 -7.336644 -8.446281 0.112216 -0.179624 -0.055164 5.369935 5.451098 2.530261
-1.255756 -7.582488 -4.604569 0.112062 -0.179090 -0.051232 5.378265 5.449172 2.516684
-6.345951 -5.113676 -10.008883 0.111908 -0.178555 -0.047297 5.386650 5.447132 2.503130
-8.610962 -2.014187 -10.231221 0.111754 -0.178018 -0.043361 5.395091 5.444978 2.489599
-2.045426 -5.758649 -7.265218 0.111600 -0.177480 -0.039422 5.403587 5.442712 2.476092
-6.317248 -8.651950 -4.968534 0.111445 -0.176939 -0.035482 5.412139 5.440332 2.462609
-6.310437 -3.783631 -4.587801 0.111291 -0.176397 -0.031541 5.420746 5.437839 2.449149
-3.736898 -5.026461 -4.250944 0.111136 -0.175853 -0.027598 5.429407 5.435232 2.435712
-8.560695 -8.688074 -7.267397 0.110980 -0.175307 -0.023654 5.438123 5.432512 2.422298
-8.035908 -2.451706 -10.708904 0.110825 -0.174759 -0.019709 5.446894 5.429678 2.408909
-8.428960 -5.543838 -8.829532 0.110669 -0.174210 -0.015763 5.455719 5.426731 2.395542
-1.563261 -5.946546 -6.767398 0.110513 -0.173659 -0.011816 5.464598 5.423671 2.382199
-7.088471 -4.309379 -6.525125 0.110357 -0.173106 -0.007869 5.473530 5.420496 2.368879
-1.412405 -3.634844 -3.903091 0.110200 -0.172551 -0.003922 5.482516 5.417208 2.355583
-8.560958 -5.538882 -10.329336 0.110043 -0.171994 0.000026 5.491555 5.413807 2.342310
-4.455738 -3.071407 -5.187130 0.109886 -0.171436 0.003974 5.500647 5.410291 2.329061
-8.799162 -3.512018 -8.179146 0.109729 -0.170876 0.007922 5.509792 5.406662 2.315836
-6.515630 -3.113079 -9.766613 0.109572 -0.170314 0.011869 5.518989 5.402919 2.302635
-7.296484 -5.414637 -5.913530 0.109414 -0.169750 0.015816 5.528238 5.399062 2.289458
-6.874858 -5.443310 -8.115911 0.109256 -0.169185 0.019763 5.537538 5.395091 2.276305
-2.017533 -3.660657 -9.171000 0.109098 -0.168618 0.023709 5.546890 5.391006 2.263176
-4.198760 -8.646598 -4.313068 0.108939 -0.168049 0.027654 5.556293 5.386807 2.250072
-9.359406 -5.853716 -5.181868 0.108780 -0.167479 0.031598 5.565747 5.382493 2.236992
-9.072096 -5.452637 -9.154261 0.108621 -0.166907 0.035541 5.575250 5.378065 2.223937
-4.736448 -7.403272 -7.467911 0.108462 -0.166333 0.039482 5.584804 5.373523 2.210908
-2.358758 -8.917649 -5.083137 0.108303 -0.165757 0.043422 5.594407 5.368866 2.197904
-7.170073 -2.361906 -8.159645 0.108143 -0.165180 0.047361 5.604060 5.364095 2.184925
-6.323318 -1.325299 -3.818258 0.107983 -0.164601 0.051297 5.613761 5.359210 2.171973
-2.336254 -1.473980 -9.453204 0.107823 -0.164021 0.055232 5.623510 5.354209 2.159046
-6.685501 -3.226530 -5.474708 0.107662 -0.163438 0.059164 5.633307 5.349094 2.146146
-2.816582 -7.172079 -7.909170 0.107502 -0.162854 0.063095 5.643152 5.343864 2.133273
-7.744121 -8.712501 -5.009908 0.107341 -0.162269 0.067023 5.653044 5.338519 2.120427
-7.223632 -8.691107 -8.163852 0.107180 -0.161681 0.070948 5.662982 5.333059 2.107608
-8.620824 -8.365072 -5.779230 0.107018 -0.161092 0.074871 5.672967 5.327484 2.094817
-9.452174 -2.190652 -9.886772 0.106856 -0.160502 0.078790 5.682997 5.321794 2.082055
-5.680510 -7.640021 -7.027536 0.106695 -0.159909 0.082707 5.693072 5.315989 2.069321
-2.662168 -3.688520 -2.691370 0.106532 -0.159315 0.086621 5.703192 5.310069 2.056616
-6.413865 -5.644900 -4.145017 0.106370 -0.158720 0.090531 5.713357 5.304033 2.043940
-2.376770 -3.586358 -8.996132 0.106208 -0.158123 0.094437 5.723565 5.297881 2.031295
-7.048092 -6.771695 -8.508782 0.106045 -0.157524 0.098340 5.733816 5.291615 2.018679
-3.999524 -6.466050 -2.552250 0.105882 -0.156924 0.102240 5.744111 5.285232 2.006095
-2.733016 -3.984079 -3.295698 0.105718 -0.156322 0.106135 5.754447 5.278734 1.993541
-7.188573 -3.933127 -5.247499 0.105555 -0.155718 0.110026 5.764825 5.272120 1.981020
-7.248825 -4.279471 -9.446070 0.105391 -0.155113 0.113913 5.775244 5.265391 1.968531
-3.283992 -1.942396 -5.114261 0.105227 -0.154506 0.117795 5.785704 5.258545 1.956074
-9.243498 -1.435364 -9.820090 0.105063 -0.153898 0.121673 5.796204 5.251584 1.943651
-7.703621 -5.943266 -6.963734 0.104898 -0.153288 0.125547 5.806744 5.244507 1.931262
-8.387972 -1.408749 -9.235833 0.104734 -0.152676 0.129415 5.817322 5.237314 1.918908
-3.678937 -3.823608 -7.795493 0.104569 -0.152063 0.133278 5.827939 5.230004 1.906589
-8.808836 -1.300757 -3.643495 0.104403 -0.151448 0.137136 5.838594 5.222579 1.894305
-8.529483 -5.802296 -6.522864 0.104238 -0.150832 0.140989 5.849286 5.215037 1.882058
-3.856929 -1.940447 -2.422541 0.104072 -0.150215 0.144836 5.860014 5.207380 1.869848
-3.980807 -3.962598 -3.464877 0.103906 -0.149595 0.148678 5.870779 5.199606 1.857675
-6.759775 -1.756682 -3.879898 0.103740 -0.148974 0.152514 5.881579 5.191716 1.845541
-2.525949 -5.575058 -9.613682 0.103574 -0.148352 0.156344 5.892414 5.183709 1.833446
-2.548312 -4.044617 -4.164090 0.103407 -0.147728 0.160167 5.903283 5.175586 1.821390
-5.177363 -0.990520 -8.828302 0.103241 -0.147103 0.163985 5.914185 5.167347 1.809375
-4.162041 -7.613231 -9.509068 0.103074 -0.146476 0.167796 5.925121 5.158992 1.797401
-4.771977 -4.535147 -3.954027 0.102906 -0.145847 0.171601 5.936088 5.150520 1.785470
-9.417442 -8.573977 -5.460666 0.102739 -0.145218 0.175399 5.947088 5.141932 1.773580
-3.774389 -7.465142 -5.821587 0.102571 -0.144586 0.179190 5.958118 5.133227 1.761735
-5.290557 -4.107807 -9.771555 0.102403 -0.143953 0.182974 5.969179 5.124406 1.749933
-7.730864 -7.515806 -5.864676 0.102235 -0.143319 0.186751 5.980269 5.115469 1.738177
-4.022900 -1.606396 -9.830358 0.102067 -0.142683 0.190520 5.991388 5.106416 1.726466
-3.321350 -2.168358 -6.306732 0.101898 -0.142046 0.194283 6.002536 5.097246 1.714802
-6.964075 -8.342454 -8.692863 0.101729 -0.141407 0.198037 6.013711 5.087960 1.703186
-4.562375 -4.226537 -4.698944 0.101560 -0.140767 0.201784 6.024913 5.078558 1.691618
-6.347418 -2.612026 -6.383627 0.101391 -0.140125 0.205523 6.036141 5.069040 1.680099
-2.805116 -8.367126 -4.935322 0.101221 -0.139482 0.209254 6.047395 5.059406 1.668631
-3.503142 -6.378776 -5.719052 0.101051 -0.138837 0.212977 6.058673 5.049656 1.657214
-3.054691 -4.673805 -3.647581 0.100881 -0.138191 0.216691 6.069976 5.039789 1.645848
-5.304619 -1.895439 -6.439951 0.100711 -0.137544 0.220397 6.081302 5.029807 1.634536
-9.260263 -1.511474 -6.625697 0.100541 -0.136895 0.224094 6.092650 5.019710 1.623277
-5.802982 -3.419832 -9.525964 0.100370 -0.136245 0.227783 6.104021 5.009496 1.612073
-7.304291 -2.604998 -9.899839 0.100199 -0.135593 0.231463 6.115412 4.999167 1.600925
-9.604854 -6.754633 -7.081379 0.100028 -0.134940 0.235133 6.126824 4.988723 1.589834
-3.800856 -7.436368 -6.678414 0.099857 -0.134286 0.238795 6.138256 4.978163 1.578800
-4.508450 -2.311180 -5.549922 0.099685 -0.133630 0.242447 6.149706 4.967488 1.567825
-2.772089 -1.605879 -4.960095 0.099513 -0.132973 0.246089 6.161174 4.956699 1.556910
-2.797682 -1.795895 -7.135227 0.099341 -0.132314 0.249722 6.172660 4.945794 1.546055
-2.120962 -1.824531 -6.976216 0.099169 -0.131654 0.253345 6.184163 4.934775 1.535263
-3.839400 -6.319921 -8.622287 0.098997 -0.130993 0.256959 6.195681 4.923641 1.524533
-4.197170 -3.892464 -5.065957 0.098824 -0.130330 0.260562 6.207214 4.912393 1.513867
-8.198946 -6.687425 -3.464564 0.098651 -0.129666 0.264155 6.218761 4.901031 1.503266
-5.438223 -6.532009 -7.474870 0.098478 -0.129001 0.267737 6.230322 4.889555 1.492731
-8.342419 -4.902323 -5.312811 0.098305 -0.128334 0.271309 6.241895 4.877965 1.482263
-9.603112 -7.634450 -5.738328 0.098131 -0.127666 0.274871 6.253480 4.866262 1.471863
-5.832120 -4.865198 -8.836555 0.097958 -0.126997 0.278421 6.265076 4.854446 1.461533
-8.928530 -5.672118 -4.252104 0.097784 -0.126327 0.281961 6.276682 4.842516 1.451273
-3.938384 -3.854179 -5.136368 0.097610 -0.125655 0.285490 6.288298 4.830474 1.441085
-2.396658 -4.707772 -7.473356 0.097435 -0.124981 0.289008 6.299922 4.818320 1.430970
-8.634763 -7.221679 -6.268565 0.097261 -0.124307 0.292514 6.311554 4.806054 1.420928
-5.678680 -1.619775 -7.230677 0.097086 -0.123631 0.296008 6.323192 4.793676 1.410961
-7.975877 -3.993026 -7.985518 0.096911 -0.122954 0.299492 6.334837 4.781187 1.401071
-8.857643 -8.812646 -5.608062 0.096735 -0.122276 0.302963 6.346486 4.768586 1.391258
-10.224114 -4.495732 -5.282550 0.096560 -0.121596 0.306423 6.358140 4.755875 1.381523
-9.663184 -5.768238 -3.540520 0.096384 -0.120915 0.309870 6.369798 4.743053 1.371868
-5.682294 -5.718715 -5.521341 0.096208 -0.120233 0.313305 6.381458 4.730122 1.362295
-7.132165 -8.406819 -3.469568 0.096032 -0.119550 0.316728 6.393119 4.717081 1.352803
-4.166988 -4.394531 -4.771856 0.095856 -0.118865 0.320139 6.404782 4.703931 1.343394
-5.579856 -4.009486 -7.759214 0.095679 -0.118179 0.323537 6.416444 4.690671 1.334070
-3.971441 -3.297084 -3.764334 0.095503 -0.117492 0.326922 6.428106 4.677304 1.324832
-9.201998 -8.898076 -3.749154 0.095326 -0.116804 0.330295 6.439766 4.663829 1.315681
-3.832215 -4.423964 -9.201826 0.095149 -0.116114 0.333655 6.451423 4.650246 1.306618
-7.742844 -1.472554 -2.815245 0.094971 -0.115424 0.337001 6.463077 4.636557 1.297645
-4.842480 -7.603304 -4.190057 0.094794 -0.114732 0.340334 6.474726 4.622761 1.288762
-9.709095 -4.452909 -5.945138 0.094616 -0.114039 0.343654 6.486370 4.608859 1.279971
-5.034030 -5.467755 -9.361989 0.094438 -0.113344 0.346961 6.498007 4.594852 1.271273
-6.824164 -5.203869 -9.514715 0.094260 -0.112649 0.350253 6.509638 4.580740 1.262670
-5.623833 -6.527083 -2.980534 0.094081 -0.111952 0.353532 6.521260 4.566524 1.254163
-3.053637 -6.801037 -7.210127 0.093903 -0.111254 0.356798 6.532874 4.552204 1.245752
-9.649868 -3.132936 -3.828875 0.093724 -0.110556 0.360049 6.544477 4.537781 1.237440
-5.431332 -5.930400 -4.513518 0.093545 -0.109855 0.363286 6.556070 4.523256 1.229227
-6.268541 -3.737402 -2.579230 0.093365 -0.109154 0.366509 6.567651 4.508629 1.221115
-7.767180 -4.478424 -9.310765 0.093186 -0.108452 0.369717 6.579220 4.493900 1.213105
-8.656847 -2.653808 -7.202896 0.093006 -0.107748 0.372911 6.590775 4.479071 1.205199
-9.974682 -3.347043 -4.413956 0.092826 -0.107044 0.376090 6.602316 4.464143 1.197397
-5.258792 -1.877161 -8.198588 0.092646 -0.106338 0.379255 6.613841 4.449115 1.189701
-5.115374 -5.872118 -3.955902 0.092466 -0.105631 0.382404 6.625350 4.433988 1.182112
-8.023533 -3.740407 -6.616054 0.092286 -0.104923 0.385539 6.636841 4.418764 1.174631
-3.162112 -5.827027 -4.058814 0.092105 -0.104214 0.388658 6.648315 4.403444 1.167260
-4.451819 -7.341802 -4.047146 0.091924 -0.103504 0.391762 6.659769 4.388026 1.160001
-4.153139 -3.127003 -8.062845 0.091743 -0.102793 0.394851 6.671203 4.372514 1.152853
-9.663372 -2.396090 -1.614422 0.091562 -0.102080 0.397924 6.682616 4.356907 1.145819
-4.483524 -1.658283 -4.577886 0.091380 -0.101367 0.400982 6.694007 4.341206 1.138900
-6.831220 -8.568662 -4.639520 0.091199 -0.100653 0.404024 6.705376 4.325412 1.132097
-4.261215 -2.391315 -7.643101 0.091017 -0.099937 0.407050 6.716720 4.309527 1.125412
-4.657095 -3.515030 -1.641915 0.090835 -0.099221 0.410060 6.728040 4.293550 1.118845
-7.235176 -8.525461 -6.887516 0.090652 -0.098503 0.413053 6.739333 4.277482 1.112398
-8.017506 -4.993162 -8.955658 0.090470 -0.097784 0.416031 6.750600 4.261326 1.106072
-9.783249 -7.022213 -3.132280 0.090287 -0.097065 0.418992 6.761840 4.245081 1.099869
-3.599945 -3.942756 -6.722687 0.090104 -0.096344 0.421937 6.773051 4.228748 1.093789
-8.388023 -8.678633 -2.419362 0.089921 -0.095623 0.424866 6.784232 4.212329 1.087835
-8.584190 -1.050852 -8.344521 0.089738 -0.094900 0.427777 6.795382 4.195824 1.082006
-6.309035 -5.905260 -3.086272 0.089554 -0.094176 0.430672 6.806501 4.179235 1.076305
-3.267180 -6.044853 -2.059368 0.089371 -0.093452 0.433550 6.817588 4.162563 1.070733
-9.634109 -8.655050 -2.102984 0.089187 -0.092726 0.436411 6.828641 4.145807 1.065290
-3.148276 -4.213531 -8.878814 0.089003 -0.091999 0.439254 6.839660 4.128971 1.059979
-3.543989 -2.137213 -4.771884 0.088819 -0.091272 0.442081 6.850643 4.112054 1.054800
-6.923584 -8.392342 -6.247543 0.088634 -0.090543 0.444890 6.861590 4.095058 1.049755
-4.691993 -4.754415 -5.330663 0.088450 -0.089814 0.447681 6.872499 4.077984 1.044844
-3.980506 -8.798686 -7.183801 0.088265 -0.089084 0.450455 6.883371 4.060833 1.040069
-9.493714 -8.669001 -6.973335 0.088080 -0.088352 0.453211 6.894203 4.043606 1.035432
-3.484760 -7.627808 -1.367635 0.087894 -0.087620 0.455950 6.904995 4.026304 1.030933
-9.591979 -5.194135 -6.309852 0.087709 -0.086887 0.458670 6.915746 4.008929 1.026573
-5.388555 -1.943909 -6.903828 0.087523 -0.086153 0.461373 6.926454 3.991481 1.022354
-8.473039 -8.285207 -7.763816 0.087338 -0.085418 0.464057 6.937120 3.973963 1.018276
-4.582097 -1.655379 -4.089393 0.087152 -0.084682 0.466723 6.947741 3.956375 1.014342
-6.529051 -3.319418 -8.877620 0.086965 -0.083945 0.469371 6.958318 3.938718 1.010552
-3.553050 -3.551157 -7.911111 0.086779 -0.083207 0.472000 6.968848 3.920994 1.006906
-6.660903 -4.677507 -4.230001 0.086593 -0.082468 0.474611 6.979331 3.903205 1.003408
-2.971169 -4.378628 -4.592615 0.086406 -0.081729 0.477203 6.989767 3.885350 1.000056
-3.194056 -8.439510 -3.934032 0.086219 -0.080989 0.479776 7.000154 3.867432 0.996853
-9.904956 -4.062622 -2.763245 0.086032 -0.080247 0.482331 7.010490 3.849453 0.993800
-10.447742 -4.756502 -6.808983 0.085844 -0.079505 0.484866 7.020776 3.831412 0.990897
-5.427146 -4.150231 -8.689923 0.085657 -0.078763 0.487383 7.031011 3.813313 0.988145
-3.589029 -1.305314 -7.727496 0.085469 -0.078019 0.489880 7.041192 3.795156 0.985547
-10.135928 -1.027762 -5.743495 0.085281 -0.077274 0.492358 7.051320 3.776942 0.983102
-4.658324 -1.546730 -2.182099 0.085093 -0.076529 0.494817 7.061394 3.758674 0.980811
-3.029101 -6.558031 -3.471042 0.084905 -0.075783 0.497256 7.071411 3.740352 0.978677
-3.533013 -1.938576 -2.514913 0.084717 -0.075036 0.499676 7.081372 3.721978 0.976699
-10.465839 -1.683176 -4.112680 0.084528 -0.074288 0.502076 7.091276 3.703554 0.974878
-6.172407 -3.026862 -5.062830 0.084339 -0.073539 0.504456 7.101122 3.685081 0.973216
-3.840167 -7.810559 -3.864022 0.084150 -0.072790 0.506816 7.110908 3.666560 0.971714
-6.020377 -4.825656 -7.156703 0.083961 -0.072040 0.509157 7.120634 3.647994 0.970372
-2.981771 -1.603012 -3.890184 0.083772 -0.071289 0.511477 7.130298 3.629383 0.969191
-9.891233 -4.815867 -5.250483 0.083582 -0.070537 0.513778 7.139901 3.610729 0.968172
-10.235248 -5.822300 -2.649968 0.083393 -0.069785 0.516058 7.149440 3.592034 0.967316
-4.492695 -7.973409 -5.788517 0.083203 -0.069032 0.518318 7.158916 3.573299 0.966624
-4.406666 -6.911663 -4.377274 0.083013 -0.068278 0.520557 7.168326 3.554527 0.966097
-10.502536 -3.480595 -2.455375 0.082822 -0.067523 0.522776 7.177671 3.535718 0.965734
-5.202264 -6.119688 -5.149628 0.082632 -0.066768 0.524975 7.186949 3.516874 0.965539
-8.533622 -6.806344 -2.936313 0.082441 -0.066011 0.527152 7.196159 3.497997 0.965510
-6.136636 -4.625917 -1.123290 0.082251 -0.065255 0.529309 7.205301 3.479089 0.965649
-4.663381 -4.245860 -2.714873 0.082060 -0.064497 0.531446 7.214373 3.460151 0.965956
-6.430165 -8.323579 -5.240222 0.081868 -0.063739 0.533561 7.223375 3.441185 0.966432
-4.028605 -5.710613 -7.133476 0.081677 -0.062980 0.535655 7.232306 3.422193 0.967078
-6.499321 -5.984318 -2.952833 0.081486 -0.062220 0.537729 7.241165 3.403177 0.967895
-4.683682 -6.165453 -1.274577 0.081294 -0.061460 0.539781 7.249951 3.384137 0.968882
-7.994212 -7.390726 -8.278994 0.081102 -0.060699 0.541812 7.258662 3.365077 0.970041
-8.339426 -1.269911 -3.893014 0.080910 -0.059938 0.543821 7.267299 3.345997 0.971373
-9.184762 -6.272082 -6.249937 0.080718 -0.059175 0.545810 7.275861 3.326899 0.972877
-3.695661 -4.904194 -4.489655 0.080526 -0.058413 0.547776 7.284346 3.307786 0.974555
-4.544114 -6.130482 -7.219429 0.080333 -0.057649 0.549722 7.292753 3.288659 0.976407
-4.280622 -8.330026 -8.316857 0.080140 -0.056885 0.551645 7.301083 3.269520 0.978433
-8.389903 -2.094868 -5.173484 0.079947 -0.056120 0.553547 7.309333 3.250370 0.980634
-8.278032 -5.258973 -3.568033 0.079754 -0.055355 0.555427 7.317504 3.231212 0.983010
-6.283674 -2.197231 -8.348471 0.079561 -0.054589 0.557285 7.325593 3.212047 0.985562
-8.801555 -3.439889 -5.488709 0.079368 -0.053822 0.559122 7.333602 3.192878 0.988290
-8.294670 -8.572334 -6.459585 0.079174 -0.053055 0.560936 7.341527 3.173705 0.991195
-7.475572 -4.016903 -6.992046 0.078980 -0.052287 0.562728 7.349370 3.154532 0.994277
-4.134838 -1.879688 -1.503915 0.078786 -0.051519 0.564499 7.357129 3.135359 0.997536
-6.395461 -6.518790 -2.762637 0.078592 -0.050750 0.566246 7.364803 3.116189 1.000973
-6.842674 -4.042623 -3.425095 0.078398 -0.049981 0.567972 7.372391 3.097023 1.004587
-10.233041 -3.231091 -6.524616 0.078204 -0.049211 0.569675 7.379893 3.077864 1.008379
-9.042546 -6.405070 -6.649490 0.078009 -0.048440 0.571356 7.387308 3.058713 1.012350
-8.907304 -7.956958 -3.554519 0.077814 -0.047669 0.573015 7.394635 3.039573 1.016499
-8.688370 -6.965480 -4.343615 0.077619 -0.046897 0.574651 7.401873 3.020444 1.020827
-10.508340 -2.361434 -8.592321 0.077424 -0.046125 0.576264 7.409022 3.001330 1.025334
-8.785326 -6.529997 -3.583625 0.077229 -0.045353 0.577855 7.416081 2.982232 1.030020
-5.920147 -3.249567 -6.669609 0.077033 -0.044579 0.579422 7.423048 2.963151 1.034885
-2.960987 -6.545521 -4.860434 0.076838 -0.043806 0.580967 7.429924 2.944091 1.039929
-9.874491 -1.769433 -6.961343 0.076642 -0.043032 0.582490 7.436708 2.925052 1.045152
-10.399697 -6.025765 -0.947197 0.076446 -0.042257 0.583989 7.443399 2.906037 1.050554
-9.243515 -6.651344 -4.816940 0.076250 -0.041482 0.585465 7.449995 2.887048 1.056136
-5.898402 -5.807043 -3.408430 0.076054 -0.040706 0.586919 7.456498 2.868086 1.061896
-9.905863 -8.391515 -8.479553 0.075857 -0.039930 0.588349 7.462905 2.849154 1.067836
-6.517835 -1.827825 -4.150827 0.075661 -0.039154 0.589756 7.469216 2.830254 1.073955
-6.699963 -3.802990 -5.571726 0.075464 -0.038377 0.591140 7.475430 2.811387 1.080252
-8.864350 -4.082610 -3.764138 0.075267 -0.037599 0.592500 7.481548 2.792556 1.086728
-4.884128 -7.086143 -6.511323 0.075070 -0.036822 0.593838 7.487567 2.773762 1.093383
-10.779633 -6.626826 -5.983209 0.074873 -0.036043 0.595151 7.493488 2.755007 1.100216
-5.767025 -4.098561 -2.761319 0.074676 -0.035265 0.596442 7.499310 2.736293 1.107228
-3.891956 -1.796428 -8.180892 0.074478 -0.034486 0.597709 7.505032 2.717623 1.114417
-6.762637 -8.600386 -2.427487 0.074280 -0.033706 0.598953 7.510653 2.698998 1.121783
-8.453644 -7.078615 -6.655821 0.074082 -0.032926 0.600172 7.516174 2.680420 1.129327
-9.835854 -7.413005 -2.123218 0.073884 -0.032146 0.601369 7.521593 2.661892 1.137048
-5.016668 -3.014158 -6.657793 0.073686 -0.031365 0.602541 7.526909 2.643414 1.144945
-10.072677 -8.574346 -6.571451 0.073488 -0.030584 0.603690 7.532123 2.624989 1.153018
-5.723614 -3.953807 -4.182668 0.073289 -0.029803 0.604816 7.537234 2.606620 1.161267
-9.382038 -5.693670 -6.496193 0.073091 -0.029021 0.605917 7.542240 2.588307 1.169691
-4.314601 -2.911122 -1.838658 0.072892 -0.028239 0.606995 7.547143 2.570053 1.178290
-7.654088 -3.031126 -8.201704 0.072693 -0.027457 0.608048 7.551940 2.551859 1.187063
-3.324183 -3.475032 -6.676257 0.072494 -0.026674 0.609078 7.556632 2.533728 1.196010
-5.109002 -5.144960 -1.780862 0.072295 -0.025891 0.610084 7.561217 2.515662 1.205130
-8.415727 -4.487096 -6.780470 0.072095 -0.025108 0.611066 7.565696 2.497662 1.214423
-9.922326 -7.075792 -5.833342 0.071896 -0.024324 0.612023 7.570068 2.479731 1.223887
-5.495556 -8.665955 -3.228357 0.071696 -0.023540 0.612957 7.574333 2.461869 1.233522
-8.915698 -2.126850 -4.364866 0.071496 -0.022756 0.613867 7.578490 2.444080 1.243328
-7.320172 -7.759718 -6.683069 0.071296 -0.021972 0.614752 7.582538 2.426365 1.253304
-7.872862 -1.265700 -4.569632 0.071096 -0.021187 0.615613 7.586477 2.408725 1.263449
-10.040770 -1.664928 -5.067857 0.070895 -0.020402 0.616450 7.590307 2.391163 1.273762
-3.772137 -6.650443 -2.458946 0.070695 -0.019616 0.617263 7.594028 2.373681 1.284243
-10.564048 -7.282882 -2.499891 0.070494 -0.018831 0.618051 7.597638 2.356280 1.294891
-5.438472 -1.725784 -3.837017 0.070294 -0.018045 0.618815 7.601138 2.338962 1.305704
-6.658094 -2.965545 -1.685888 0.070093 -0.017259 0.619555 7.604526 2.321730 1.316682
-3.865900 -2.145504 -3.233936 0.069892 -0.016473 0.620270 7.607804 2.304584 1.327825
-7.756660 -8.611010 -6.788446 0.069690 -0.015686 0.620961 7.610969 2.287526 1.339130
-10.907335 -5.941976 -1.434908 0.069489 -0.014899 0.621628 7.614023 2.270559 1.350598
-8.591622 -2.058687 -7.510582 0.069287 -0.014112 0.622270 7.616964 2.253684 1.362227
-8.542410 -5.653153 -7.002676 0.069086 -0.013325 0.622888 7.619793 2.236903 1.374016
-4.883342 -7.060546 -1.591118 0.068884 -0.012538 0.623481 7.622509 2.220217 1.385965
-8.643851 -7.477323 -2.883505 0.068682 -0.011750 0.624049 7.625111 2.203629 1.398071
-3.370875 -1.792874 -3.068046 0.068480 -0.010963 0.624593 7.627600 2.187140 1.410335
-4.518689 -2.075104 -1.563324 0.068278 -0.010175 0.625113 7.629974 2.170751 1.422755
-9.183908 -3.996616 -6.713846 0.068075 -0.009387 0.625607 7.632235 2.154465 1.435329
-7.487077 -2.748084 -2.935151 0.067873 -0.008599 0.626078 7.634381 2.138283 1.448057
-9.072395 -3.109687 -1.395740 0.067670 -0.007810 0.626523 7.636413 2.122206 1.460937
-4.292494 -1.242621 -7.511855 0.067467 -0.007022 0.626944 7.638330 2.106237 1.473969
-4.175895 -2.919970 -2.569181 0.067264 -0.006233 0.627340 7.640131 2.090377 1.487151
-7.356629 -5.945775 -7.788434 0.067061 -0.005445 0.627712 7.641818 2.074627 1.500481
-7.388928 -7.842567 -6.295768 0.066858 -0.004656 0.628058 7.643389 2.058990 1.513959
-7.990037 -1.626288 -7.093441 0.066655 -0.003867 0.628381 7.644844 2.043466 1.527584
-5.793594 -5.870980 -7.090027 0.066451 -0.003078 0.628678 7.646183 2.028057 1.541353
-10.780682 -2.612411 -6.128090 0.066247 -0.002289 0.628951 7.647407 2.012764 1.555265
-5.059539 -4.304124 -6.260088 0.066044 -0.001500 0.629199 7.648514 1.997590 1.569320
-4.511510 -1.891336 -3.911727 0.065840 -0.000711 0.629422 7.649505 1.982536 1.583516
-4.514433 -4.592681 -2.108715 0.065636 0.000079 0.629620 7.650380 1.967603 1.597851
-10.729461 -2.248117 -7.706385 0.065431 0.000868 0.629794 7.651138 1.952792 1.612324
-9.827195 -3.214051 -7.003491 0.065227 0.001658 0.629942 7.651780 1.938105 1.626933
-5.132764 -2.103314 -6.944030 0.065022 0.002447 0.630066 7.652305 1.923543 1.641677
-5.206942 -4.136670 -4.509669 0.064818 0.003237 0.630166 7.652714 1.909109 1.656555
-3.362473 -7.569938 -7.004696 0.064613 0.004026 0.630240 7.653006 1.894802 1.671565
-5.764271 -3.135091 -5.612853 0.064408 0.004816 0.630290 7.653181 1.880624 1.686705
-3.228626 -8.768719 -5.979069 0.064203 0.005605 0.630314 7.653239 1.866578 1.701974
-5.829562 -8.738112 -7.517355 0.063998 0.006395 0.630314 7.653181 1.852663 1.717371
-9.127240 -2.180576 -1.283843 0.063793 0.007184 0.630290 7.653006 1.838881 1.732893
-10.976160 -7.088566 -3.719215 0.063587 0.007974 0.630240 7.652714 1.825234 1.748539
-3.160723 -1.226126 -3.640925 0.063382 0.008763 0.630166 7.652305 1.811723 1.764308
-3.450045 -6.073157 -6.771436 0.063176 0.009553 0.630066 7.651780 1.798348 1.780198
-6.490826 -4.585251 -6.340661 0.062970 0.010342 0.629942 7.651138 1.785111 1.796207
-4.058348 -2.303497 -3.403220 0.062764 0.011132 0.629794 7.650380 1.772014 1.812334
-5.246188 -6.937387 -7.608736 0.062558 0.011921 0.629620 7.649505 1.759057 1.828576
-9.828256 -3.730812 -5.889921 0.062352 0.012711 0.629422 7.648514 1.746241 1.844933
-6.093083 -2.874235 -2.716542 0.062146 0.013500 0.629199 7.647407 1.733567 1.861402
-5.143729 -8.600446 -6.761380 0.061939 0.014289 0.628951 7.646183 1.721037 1.877981
-7.303141 -1.890830 -4.221659 0.061733 0.015078 0.628678 7.644844 1.708652 1.894670
-10.575607 -2.729425 -2.374636 0.061526 0.015867 0.628381 7.643389 1.696411 1.911466
-6.959804 -8.882255 -0.767099 0.061319 0.016656 0.628058 7.641818 1.684317 1.928367
-9.092243 -1.883110 -4.982185 0.061112 0.017445 0.627712 7.640131 1.672371 1.945371
-10.528002 -8.300097 -5.619252 0.060905 0.018233 0.627340 7.638330 1.660572 1.962478
-6.921218 -6.056596 -8.551692 0.060698 0.019022 0.626944 7.636413 1.648923 1.979685
-5.287903 -6.339587 -3.312243 0.060490 0.019810 0.626523 7.634381 1.637424 1.996989
-9.672838 -4.134047 -5.164566 0.060283 0.020599 0.626078 7.632235 1.626075 2.014390
-5.609797 -7.675862 -1.459976 0.060075 0.021387 0.625607 7.629974 1.614878 2.031886
-9.745881 -8.326701 -2.466319 0.059867 0.022175 0.625113 7.627600 1.603833 2.049474
-3.871587 -7.130799 -3.778219 0.059660 0.022963 0.624593 7.625111 1.592941 2.067153
-10.410042 -6.983421 -1.783761 0.059452 0.023750 0.624049 7.622509 1.582203 2.084921
-5.549259 -5.219661 -5.698463 0.059244 0.024538 0.623481 7.619793 1.571620 2.102776
-9.313710 -7.291555 -2.432865 0.059035 0.025325 0.622888 7.616964 1.561191 2.120716
-7.849860 -2.544265 -4.349334 0.058827 0.026112 0.622270 7.614023 1.550918 2.138739
-10.195664 -8.741788 -1.036993 0.058618 0.026899 0.621628 7.610969 1.540802 2.156844
-6.098206 -1.197009 -4.732340 0.058410 0.027686 0.620961 7.607804 1.530842 2.175028
-3.153288 -4.559027 -6.685158 0.058201 0.028473 0.620270 7.604526 1.521040 2.193289
-10.076815 -8.095951 -2.609156 0.057992 0.029259 0.619555 7.601138 1.511396 2.211626
-9.904797 -7.645180 -5.370603 0.057783 0.030045 0.618815 7.597638 1.501910 2.230037
-8.321635 -5.476118 -7.717791 0.057574 0.030831 0.618051 7.594028 1.492583 2.248519
-9.644100 -4.018170 -2.238404 0.057365 0.031616 0.617263 7.590307 1.483415 2.267071
-8.027151 -6.700112 -1.357554 0.057156 0.032402 0.616450 7.586477 1.474407 2.285691
-5.209014 -5.902821 -7.046592 0.056947 0.033187 0.615613 7.582538 1.465559 2.304377
-10.589566 -1.608327 -5.171419 0.056737 0.033972 0.614752 7.578490 1.456872 2.323127
-6.231110 -5.055309 -1.368686 0.056527 0.034756 0.613867 7.574333 1.448345 2.341938
-9.511572 -8.419303 -8.081831 0.056318 0.035540 0.612957 7.570068 1.439979 2.360810
-10.615054 -3.709245 -4.729252 0.056108 0.036324 0.612023 7.565696 1.431775 2.379739
-3.577896 -5.883815 -1.572307 0.055898 0.037108 0.611066 7.561217 1.423732 2.398725
-5.311813 -1.639534 -4.690087 0.055688 0.037891 0.610084 7.556632 1.415850 2.417765
-7.512676 -5.085667 -4.334685 0.055477 0.038674 0.609078 7.551940 1.408131 2.436857
-7.234854 -1.517716 -1.681010 0.055267 0.039457 0.608048 7.547143 1.400574 2.455999
-8.540631 -3.427322 -1.692087 0.055057 0.040239 0.606995 7.542240 1.393178 2.475190
-8.520967 -7.939353 -7.911459 0.054846 0.041021 0.605917 7.537234 1.385945 2.494427
-4.995294 -4.923978 -4.896281 0.054636 0.041803 0.604816 7.532123 1.378874 2.513708
-4.638087 -7.451404 -6.074924 0.054425 0.042584 0.603690 7.526909 1.371966 2.533031
-5.122625 -5.526178 -5.286069 0.054214 0.043365 0.602541 7.521593 1.365220 2.552395
-8.958811 -4.560427 -2.059246 0.054003 0.044146 0.601369 7.516174 1.358636 2.571798
-10.566136 -8.023645 -4.594082 0.053792 0.044926 0.600172 7.510653 1.352214 2.591237
-3.833307 -6.713514 -6.262293 0.053581 0.045706 0.598953 7.505032 1.345954 2.610710
-10.446371 -8.737650 -3.891793 0.053369 0.046486 0.597709 7.499310 1.339857 2.630216
-4.265512 -6.446748 -5.736681 0.053158 0.047265 0.596442 7.493488 1.333921 2.649754
-10.626094 -6.099504 -1.593330 0.052946 0.048043 0.595151 7.487567 1.328147 2.669319
-10.753272 -7.863212 -1.876074 0.052735 0.048822 0.593838 7.481548 1.322534 2.688912
-10.849684 -5.504938 -1.870261 0.052523 0.049599 0.592500 7.475430 1.317083 2.708530
-3.747132 -5.186279 -1.813211 0.052311 0.050377 0.591140 7.469216 1.311793 2.728171
-6.404877 -3.055295 -6.021120 0.052099 0.051154 0.589756 7.462905 1.306664 2.747833
-10.082209 -3.694636 -2.588762 0.051887 0.051930 0.588349 7.456498 1.301695 2.767514
-7.764266 -6.482951 -8.087826 0.051675 0.052706 0.586919 7.449995 1.296887 2.787212
-7.937487 -6.325161 -6.249283 0.051463 0.053482 0.585465 7.443399 1.292238 2.806927
-3.617960 -3.983242 -5.118406 0.051250 0.054257 0.583989 7.436708 1.287749 2.826654
-5.928863 -4.467870 -0.678661 0.051038 0.055032 0.582490 7.429924 1.283419 2.846394
-4.811559 -3.522110 -1.477527 0.050825 0.055806 0.580967 7.423048 1.279247 2.866143
-10.837489 -4.705525 -0.750134 0.050613 0.056579 0.579422 7.416081 1.275234 2.885901
-6.650083 -8.780600 -4.005579 0.050400 0.057353 0.577855 7.409022 1.271378 2.905665
-9.090483 -5.762264 -7.732115 0.050187 0.058125 0.576264 7.401873 1.267680 2.925433
-9.894888 -2.878450 -6.484559 0.049974 0.058897 0.574651 7.394635 1.264138 2.945204
-6.908649 -5.112133 -8.367088 0.049761 0.059669 0.573015 7.387308 1.260753 2.964976
-3.888175 -5.619921 -0.684763 0.049548 0.060440 0.571356 7.379893 1.257523 2.984747
-6.344636 -2.310991 -6.592466 0.049335 0.061211 0.569675 7.372391 1.254448 3.004515
-9.956056 -8.098897 -8.049139 0.049121 0.061981 0.567972 7.364803 1.251528 3.024278
-9.290923 -2.368938 -2.358568 0.048908 0.062750 0.566246 7.357129 1.248761 3.044035
-3.433588 -8.673618 -7.966940 0.048694 0.063519 0.564499 7.349370 1.246147 3.063785
-3.066042 -5.150828 -2.225032 0.048481 0.064287 0.562728 7.341527 1.243686 3.083524
-8.402319 -8.381144 -4.643793 0.048267 0.065055 0.560936 7.333602 1.241376 3.103252
-7.553948 -2.007402 -7.252191 0.048053 0.065822 0.559122 7.325593 1.239217 3.122967
-9.243065 -8.138303 -0.866956 0.047839 0.066589 0.557285 7.317504 1.237209 3.142667
-4.878182 -7.692323 -3.203633 0.047625 0.067355 0.555427 7.309333 1.235350 3.162351
-9.106772 -5.754485 -1.007005 0.047411 0.068120 0.553547 7.301083 1.233639 3.182016
-6.203352 -8.172051 -3.494551 0.047197 0.068885 0.551645 7.292753 1.232077 3.201661
-9.379983 -8.695732 -6.820214 0.046983 0.069649 0.549722 7.284346 1.230661 3.221286
-6.638394 -4.030276 -4.860520 0.046768 0.070413 0.547776 7.275861 1.229392 3.240887
-9.121635 -7.606771 -1.412724 0.046554 0.071175 0.545810 7.267299 1.228267 3.260463
-8.428246 -7.373587 -1.361457 0.046339 0.071938 0.543821 7.258662 1.227288 3.280013
-9.878156 -4.057609 -5.915610 0.046125 0.072699 0.541812 7.249951 1.226451 3.299535
-8.222476 -2.780445 -4.134734 0.045910 0.073460 0.539781 7.241165 1.225758 3.319028
-5.668204 -2.628500 -3.777513 0.045695 0.074220 0.537729 7.232306 1.225206 3.338490
-8.173672 -7.703476 -3.533123 0.045480 0.074980 0.535655 7.223375 1.224794 3.357920
-8.712153 -1.594793 -7.248931 0.045265 0.075739 0.533561 7.214373 1.224523 3.377316
-4.455330 -2.009789 -4.810516 0.045050 0.076497 0.531446 7.205301 1.224390 3.396676
-5.898117 -6.126641 -0.788417 0.044835 0.077255 0.529309 7.196159 1.224394 3.415999
-5.575950 -3.244598 -5.222091 0.044620 0.078011 0.527152 7.186949 1.224535 3.435285
-9.603838 -5.466682 -1.755249 0.044404 0.078768 0.524975 7.177671 1.224812 3.454530
-5.368913 -5.859188 -4.569539 0.044189 0.079523 0.522776 7.168326 1.225224 3.473734
-9.536915 -3.849101 -6.910017 0.043973 0.080278 0.520557 7.158916 1.225769 3.492896
-5.361626 -8.441397 -3.785211 0.043758 0.081032 0.518318 7.149440 1.226446 3.512013
-4.591902 -4.806278 -3.078980 0.043542 0.081785 0.516058 7.139901 1.227254 3.531086
-7.351393 -7.233980 -0.727640 0.043326 0.082537 0.513778 7.130298 1.228193 3.550111
-3.044989 -3.629514 -2.755292 0.043111 0.083289 0.511477 7.120634 1.229261 3.569089
-5.599064 -8.772697 -4.331863 0.042895 0.084040 0.509157 7.110908 1.230457 3.588017
-3.940834 -7.785183 -1.942805 0.042679 0.084790 0.506816 7.101122 1.231779 3.606895
-9.096238 -5.666710 -6.158954 0.042462 0.085539 0.504456 7.091276 1.233227 3.625721
-7.982036 -2.052707 -8.319115 0.042246 0.086288 0.502076 7.081372 1.234799 3.644494
-4.975728 -6.472238 -3.857598 0.042030 0.087036 0.499676 7.071411 1.236495 3.663212
-8.090610 -2.568234 -1.723962 0.041814 0.087783 0.497256 7.061394 1.238312 3.681875
-6.339496 -9.146051 -4.296771 0.041597 0.088529 0.494817 7.051320 1.240251 3.700481
-4.116197 -4.968902 -6.813367 0.041381 0.089274 0.492358 7.041192 1.242309 3.719029
-8.125630 -8.984517 -5.578576 0.041164 0.090019 0.489880 7.031011 1.244485 3.737519
-8.638046 -7.425828 -4.791201 0.040948 0.090763 0.487383 7.020776 1.246778 3.755948
-9.941476 -9.011308 -2.041202 0.040731 0.091505 0.484866 7.010490 1.249187 3.774315
-10.146373 -7.141232 -2.274483 0.040514 0.092247 0.482331 7.000154 1.251711 3.792620
-7.036738 -2.246765 -4.171718 0.040297 0.092989 0.479776 6.989767 1.254348 3.810862
-7.247678 -6.341649 -8.072790 0.040080 0.093729 0.477203 6.979331 1.257097 3.829039
-4.945527 -3.780609 -2.651893 0.039863 0.094468 0.474611 6.968848 1.259957 3.847150
-5.153660 -7.462618 -8.504464 0.039646 0.095207 0.472000 6.958318 1.262926 3.865195
-7.861361 -2.382629 -2.639721 0.039429 0.095945 0.469371 6.947741 1.266004 3.883172
-8.303749 -8.083170 -7.284182 0.039212 0.096682 0.466723 6.937120 1.269188 3.901081
-10.042728 -6.068102 -6.417132 0.038994 0.097418 0.464057 6.926454 1.272478 3.918920
-8.745555 -8.397583 -4.825786 0.038777 0.098153 0.461373 6.915746 1.275872 3.936688
-4.806987 -6.444852 -7.346583 0.038560 0.098887 0.458670 6.904995 1.279369 3.954385
-9.496184 -2.346019 -5.777739 0.038342 0.099620 0.455950 6.894203 1.282968 3.972009
-9.346405 -2.613247 -2.169785 0.038125 0.100352 0.453211 6.883371 1.286667 3.989561
-4.741973 -5.657037 -5.387187 0.037907 0.101084 0.450455 6.872499 1.290464 4.007038
-3.707460 -8.153883 -1.199854 0.037689 0.101814 0.447681 6.861590 1.294360 4.024440
-4.024976 -4.114142 -4.853619 0.037471 0.102543 0.444890 6.850643 1.298352 4.041766
-3.490691 -1.754109 -8.350766 0.037253 0.103272 0.442081 6.839660 1.302438 4.059016
-3.988900 -4.344675 -5.025797 0.037036 0.103999 0.439254 6.828641 1.306618 4.076188
-5.990146 -3.242154 -3.552581 0.036818 0.104726 0.436411 6.817588 1.310891 4.093283
-4.255032 -9.155291 -5.502051 0.036599 0.105452 0.433550 6.806501 1.315254 4.110298
-7.203491 -4.325496 -3.544215 0.036381 0.106176 0.430672 6.795382 1.319707 4.127233
-3.475580 -4.752344 -3.699911 0.036163 0.106900 0.427777 6.784232 1.324248 4.144088
-3.533295 -3.515851 -2.624727 0.035945 0.107623 0.424866 6.773051 1.328875 4.160862
-9.618136 -8.024417 -7.698162 0.035727 0.108344 0.421937 6.761840 1.333588 4.177555
-3.803896 -6.610940 -4.998700 0.035508 0.109065 0.418992 6.750600 1.338386 4.194165
-9.936879 -9.468631 -0.945008 0.035290 0.109784 0.416031 6.739333 1.343266 4.210691
-9.253166 -2.207253 -6.742695 0.035071 0.110503 0.413053 6.728040 1.348227 4.227134
-9.908175 -4.302412 -7.965121 0.034853 0.111221 0.410060 6.716720 1.353269 4.243493
-10.007490 -4.127990 -8.626229 0.034634 0.111937 0.407050 6.705376 1.358389 4.259767
-9.242137 -7.499445 -6.123861 0.034415 0.112653 0.404024 6.694007 1.363587 4.275955
-4.776812 -5.128082 -4.527175 0.034197 0.113367 0.400982 6.682616 1.368861 4.292058
-5.862505 -9.669381 -5.833903 0.033978 0.114080 0.397924 6.671203 1.374209 4.308074
-6.115252 -8.978979 -6.476283 0.033759 0.114793 0.394851 6.659769 1.379631 4.324002
-5.739230 -9.685063 -8.411994 0.033540 0.115504 0.391762 6.648315 1.385125 4.339844
-7.443261 -8.404568 -6.211361 0.033321 0.116214 0.388658 6.636841 1.390689 4.355597
-8.288926 -7.277643 -3.992177 0.033102 0.116923 0.385539 6.625350 1.396323 4.371261
-6.132317 -3.416604 -5.685826 0.032883 0.117631 0.382404 6.613841 1.402025 4.386837
-4.416075 -4.528006 -4.255323 0.032664 0.118338 0.379255 6.602316 1.407793 4.402323
-3.616413 -6.353339 -4.078922 0.032444 0.119044 0.376090 6.590775 1.413627 4.417719
-4.269302 -5.445920 -0.803287 0.032225 0.119748 0.372911 6.579220 1.419526 4.433025
-9.562154 -7.360725 -5.641974 0.032006 0.120452 0.369717 6.567651 1.425487 4.448240
-6.616549 -7.994959 -6.118252 0.031786 0.121154 0.366509 6.556070 1.431509 4.463365
-8.574849 -9.608211 -8.563824 0.031567 0.121855 0.363286 6.544477 1.437592 4.478398
-4.110178 -9.639880 -1.469245 0.031347 0.122556 0.360049 6.532874 1.443733 4.493339
-8.799397 -4.923580 -4.511576 0.031128 0.123254 0.356798 6.521260 1.449933 4.508188
-4.709591 -6.977107 -2.626905 0.030908 0.123952 0.353532 6.509638 1.456188 4.522945
-6.309965 -3.683318 -5.801350 0.030689 0.124649 0.350253 6.498007 1.462499 4.537609
-2.945506 -2.607574 -4.291463 0.030469 0.125344 0.346961 6.486370 1.468864 4.552181
-6.168461 -8.391042 -3.837405 0.030249 0.126039 0.343654 6.474726 1.475281 4.566659
-4.503934 -2.822595 -4.925856 0.030029 0.126732 0.340334 6.463077 1.481750 4.581043
-4.300798 -8.388647 -8.545414 0.029810 0.127424 0.337001 6.451423 1.488269 4.595334
-9.275168 -2.963537 -2.346127 0.029590 0.128114 0.333655 6.439766 1.494837 4.609532
-8.799372 -8.481173 -3.318985 0.029370 0.128804 0.330295 6.428106 1.501452 4.623634
-7.091663 -2.373633 -4.917413 0.029150 0.129492 0.326922 6.416444 1.508114 4.637643
-7.063581 -8.344630 -6.034560 0.028930 0.130179 0.323537 6.404782 1.514822 4.651557
-6.744207 -8.767934 -0.892199 0.028710 0.130865 0.320139 6.393119 1.521573 4.665377
-6.745378 -3.448071 -2.197441 0.028489 0.131550 0.316728 6.381458 1.528368 4.679102
-8.400819 -4.755756 -6.680165 0.028269 0.132233 0.313305 6.369798 1.535204 4.692731
-9.250588 -6.636392 -8.205016 0.028049 0.132915 0.309870 6.358140 1.542082 4.706266
-9.355701 -5.663451 -7.058482 0.027829 0.133596 0.306423 6.346486 1.548998 4.719705
-10.016322 -1.954002 -2.797342 0.027608 0.134276 0.302963 6.334837 1.555953 4.733049
-2.356397 -2.302980 -4.985606 0.027388 0.134954 0.299492 6.323192 1.562946 4.746298
-2.304148 -3.097756 -6.289882 0.027168 0.135631 0.296008 6.311554 1.569974 4.759451
-2.580637 -9.019038 -7.828366 0.026947 0.136307 0.292514 6.299922 1.577038 4.772508
-10.178994 -7.510093 -5.817193 0.026727 0.136981 0.289008 6.288298 1.584135 4.785470
-9.211797 -4.247176 -1.114650 0.026506 0.137655 0.285490 6.276682 1.591266 4.798336
-7.586128 -3.637746 -3.407017 0.026286 0.138327 0.281961 6.265076 1.598428 4.811107
-9.277364 -4.165071 -1.722261 0.026065 0.138997 0.278421 6.253480 1.605622 4.823781
-10.140117 -9.148390 -5.824207 0.025844 0.139666 0.274871 6.241895 1.612845 4.836360
-2.816269 -1.979208 -7.427557 0.025624 0.140334 0.271309 6.230322 1.620096 4.848843
-8.742503 -9.153747 -3.946584 0.025403 0.141001 0.267737 6.218761 1.627376 4.861230
-6.817917 -7.939251 -7.186572 0.025182 0.141666 0.264155 6.207214 1.634682 4.873521
-8.601059 -2.922549 -3.753053 0.024961 0.142330 0.260562 6.195681 1.642014 4.885717
-5.112634 -4.733805 -7.392028 0.024741 0.142993 0.256959 6.184163 1.649371 4.897817
-5.074665 -2.995546 -7.387448 0.024520 0.143654 0.253345 6.172660 1.656752 4.909821
-4.906211 -2.941462 -6.813337 0.024299 0.144314 0.249722 6.161174 1.664156 4.921729
-5.370318 -6.126712 -2.109199 0.024078 0.144973 0.246089 6.149706 1.671582 4.933541
-9.635905 -4.113184 -4.390209 0.023857 0.145630 0.242447 6.138256 1.679028 4.945259
-6.602690 -3.798462 -5.657475 0.023636 0.146286 0.238795 6.126824 1.686495 4.956880
-7.169735 -4.767750 -5.681941 0.023415 0.146940 0.235133 6.115412 1.693982 4.968406
-8.588782 -9.616466 -6.862875 0.023194 0.147593 0.231463 6.104021 1.701486 4.979837
-2.791068 -2.198588 -4.971528 0.022973 0.148245 0.227783 6.092650 1.709009 4.991172
-8.836488 -5.972114 -0.900760 0.022751 0.148895 0.224094 6.081302 1.716548 5.002413
-3.882780 -2.344580 -1.414543 0.022530 0.149544 0.220397 6.069976 1.724103 5.013558
-8.080191 -9.299924 -5.580026 0.022309 0.150191 0.216691 6.058673 1.731673 5.024608
-8.911456 -4.050906 -6.078054 0.022088 0.150837 0.212977 6.047395 1.739258 5.035563
-6.351226 -8.500103 -2.975420 0.021867 0.151482 0.209254 6.036141 1.746856 5.046424
-8.311152 -3.956858 -6.942032 0.021645 0.152125 0.205523 6.024913 1.754467 5.057190
-5.016757 -7.343327 -3.095953 0.021424 0.152767 0.201784 6.013711 1.762090 5.067862
-8.977310 -8.670563 -7.330852 0.021203 0.153407 0.198037 6.002536 1.769724 5.078439
-7.019115 -6.889094 -7.080311 0.020981 0.154046 0.194283 5.991388 1.777369 5.088922
-4.539390 -2.473922 -5.438041 0.020760 0.154683 0.190520 5.980269 1.785024 5.099311
-3.449614 -3.753498 -0.934267 0.020538 0.155319 0.186751 5.969179 1.792688 5.109606
-8.173911 -7.514253 -2.802319 0.020317 0.155953 0.182974 5.958118 1.800361 5.119808
-3.802426 -2.463589 -4.346798 0.020095 0.156586 0.179190 5.947088 1.808042 5.129916
-4.976546 -7.240466 -6.162463 0.019874 0.157218 0.175399 5.936088 1.815730 5.139930
-5.032720 -5.963579 -5.036042 0.019652 0.157847 0.171601 5.925121 1.823424 5.149852
-4.575388 -9.870008 -7.401346 0.019431 0.158476 0.167796 5.914185 1.831125 5.159680
-2.378531 -5.519602 -8.802423 0.019209 0.159103 0.163985 5.903283 1.838831 5.169415
-7.446931 -9.828778 -2.572855 0.018988 0.159728 0.160167 5.892414 1.846543 5.179058
-4.093183 -5.907393 -4.241375 0.018766 0.160352 0.156344 5.881579 1.854258 5.188608
-8.084245 -6.894390 -4.814214 0.018544 0.160974 0.152514 5.870779 1.861978 5.198066
-3.052796 -4.933855 -5.096442 0.018323 0.161595 0.148678 5.860014 1.869701 5.207432
-2.924945 -6.368348 -6.772577 0.018101 0.162215 0.144836 5.849286 1.877427 5.216706
-3.885021 -2.472254 -5.951079 0.017879 0.162832 0.140989 5.838594 1.885155 5.225889
-7.813247 -8.293807 -8.809683 0.017658 0.163448 0.137136 5.827939 1.892885 5.234980
-1.848220 -3.821928 -4.458477 0.017436 0.164063 0.133278 5.817322 1.900617 5.243979
-6.586148 -5.030098 -1.021877 0.017214 0.164676 0.129415 5.806744 1.908349 5.252888
-3.973925 -9.438831 -5.398436 0.016992 0.165288 0.125547 5.796204 1.916083 5.261705
-4.128902 -7.601562 -1.607983 0.016770 0.165898 0.121673 5.785704 1.923816 5.270432
-4.598477 -2.815169 -5.579860 0.016549 0.166506 0.117795 5.775244 1.931550 5.279069
-7.241569 -3.167867 -8.853501 0.016327 0.167113 0.113913 5.764825 1.939283 5.287615
-8.448064 -2.614241 -3.282027 0.016105 0.167718 0.110026 5.754447 1.947015 5.296071
-7.167726 -3.670214 -2.539960 0.015883 0.168322 0.106135 5.744111 1.954746 5.304438
-2.332311 -5.159922 -3.978944 0.015661 0.168924 0.102240 5.733816 1.962476 5.312715
-8.645412 -2.958088 -4.021933 0.015439 0.169524 0.098340 5.723565 1.970204 5.320902
-7.519266 -2.706879 -8.649510 0.015217 0.170123 0.094437 5.713357 1.977930 5.329001
-9.399231 -9.620346 -4.881808 0.014995 0.170720 0.090531 5.703192 1.985654 5.337010
-2.523976 -7.114751 -4.539380 0.014774 0.171315 0.086621 5.693072 1.993375 5.344931
-4.754615 -9.739212 -5.903481 0.014552 0.171909 0.082707 5.682997 2.001094 5.352763
-6.686493 -8.388739 -8.176630 0.014330 0.172502 0.078790 5.672967 2.008810 5.360507
-8.614510 -8.216844 -6.915192 0.014108 0.173092 0.074871 5.662982 2.016522 5.368163
-2.010559 -8.872491 -4.992345 0.013886 0.173681 0.070948 5.653044 2.024232 5.375731
-8.304778 -3.003729 -1.621650 0.013664 0.174269 0.067023 5.643152 2.031938 5.383211
-8.377780 -3.404195 -8.964032 0.013442 0.174854 0.063095 5.633307 2.039641 5.390604
-3.681698 -3.355481 -5.968851 0.013220 0.175438 0.059164 5.623510 2.047340 5.397910
-7.472677 -9.497786 -2.299747 0.012998 0.176021 0.055232 5.613761 2.055035 5.405129
-4.152918 -4.161683 -6.211084 0.012776 0.176601 0.051297 5.604060 2.062727 5.412262
-7.943113 -10.324945 -8.397876 0.012554 0.177180 0.047361 5.594407 2.070414 5.419307
-6.766402 -8.007135 -5.038251 0.012332 0.177757 0.043422 5.584804 2.078098 5.426267
-6.295178 -2.922795 -7.820135 0.012110 0.178333 0.039482 5.575250 2.085778 5.433140
-3.136158 -9.008852 -2.659780 0.011888 0.178907 0.035541 5.565747 2.093454 5.439928
-4.860521 -6.675330 -6.230915 0.011665 0.179479 0.031598 5.556293 2.101126 5.446630
-6.371088 -7.380318 -7.063053 0.011443 0.180049 0.027654 5.546890 2.108794 5.453246
-1.554608 -5.166146 -5.076930 0.011221 0.180618 0.023709 5.537538 2.116458 5.459778
-7.732310 -9.622946 -2.017649 0.010999 0.181185 0.019763 5.528238 2.124119 5.466224
-6.398298 -6.835659 -8.612357 0.010777 0.181750 0.015816 5.518989 2.131776 5.472586
-2.481320 -8.237245 -1.841116 0.010555 0.182314 0.011869 5.509792 2.139429 5.478863
-8.794632 -5.552311 -4.630711 0.010333 0.182876 0.007922 5.500647 2.147079 5.485055
-3.911948 -7.803823 -8.845703 0.010111 0.183436 0.003974 5.491555 2.154725 5.491164
